"rt","stimulus","key_press","test_part","trial_type","trial_index","time_elapsed","internal_node_id","subject","condition","experiment_name","totalTime","button_pressed","responses","order"
"1852","Welcome to the experiment. Press any key to begin.","39","instructions","html-keyboard-response","0","1855","0.0-0.0","5bb4f557e2c4e100010e2fca","180","mooneymood","197485","","",""
"3777","<div style='word-wrap: break-word; width: 900px'><h3>Please consider this information carefully before deciding whether to participate in this research</h3><ul style='text-align: left; font-size: .8em;'><li><b>Time required</b>: Participation will take between 15 and 45 minutes to complete.</li><li><b>Risks</b>:  There are no anticipated risks associated with participating in this study. The effects of participating should be comparable to those you would experience from viewing a computer monitor for 30 minutes and using a mouse or keyboard.</li><li><b>Benefits</b>:  This study provides no benefits to you individually except for the monetary reward. The study provides important information about the nature of perception and learning.</li><li><b>Confidentiality</b>:  Your participation in this study will remain confidential. No personally identifiable information will be associated with your data. Your de-identified data may be shared with other researchers and used in future projects.</li><li><b>Participation and withdrawal</b>:  Your participation in this study is completely voluntary and you may refuse to participate or you may choose to withdraw at any time without penalty.</li><li><b>How to contact the researchers</b>: If you have questions or concerns about your participation or payment, or want to request a summary of research findings, please contact Sander Van de Cruys (KU Leuven), at sander.vandecruys@kuleuven.be.</li></ul><p>The nature and purpose of this research have been sufficiently explained and I agree to participate in this study.  I understand that I am free to withdraw at any time without incurring any penalty.</p><p>Please consent by clicking the button below to continue. Otherwise, please exit the study at this time.</p></div>","","instructions","html-button-response","1","5637","0.0-1.0","5bb4f557e2c4e100010e2fca","180","mooneymood","197485","0","",""
"3143","<div style='word-wrap: break-word; width: 900px'><h3>Instructions: read carefully!</h3><p>This is a memory experiment that consists of 3 short parts. In the first part you'll have to fill in a brief emotion-questionnaire. In the second part you'll see a series of black and white images, that you'll have to try to remember in the last part.</p><p>Please complete each task immediately after the other. The experiment will only take about 10 minutes in total.</p><p>Press enter to start the first part of the experiment.</p></div>","","instructions","html-button-response","2","8780","0.0-2.0","5bb4f557e2c4e100010e2fca","180","mooneymood","197485","0","",""
"24687","","","panas_questionnaire","survey-likert","3","33470","0.0-3.0","5bb4f557e2c4e100010e2fca","180","mooneymood","197485","","{""Q0"":2,""Q1"":1,""Q2"":2,""Q3"":2,""Q4"":1,""Q5"":3,""Q6"":2,""Q7"":2,""Q8"":3,""Q9"":3,""Q10"":1,""Q11"":1,""Q12"":2,""Q13"":1,""Q14"":3,""Q15"":3,""Q16"":2,""Q17"":1,""Q18"":1,""Q19"":3}","Strong,Upset,Proud,Ashamed,Guilty,Hostile,Scared,Attentive,Interested,Enthusiastic,Afraid,Jittery,Inspired,Nervous,Determined,Excited,Active,Alert,Distressed,Irritable"
"3142","<div style='word-wrap: break-word; width: 900px'><h3>Start part 2</h3><p>You will see a serious of black and white images. Please pay close attention to the objects in the images because you'll need to remember them afterwards. You do not need to respond to the images, just passively look at them.</p><p>Press any key to start the second part of the experiment.</p></div>","39","instructions","html-keyboard-response","4","36612","0.0-4.0","5bb4f557e2c4e100010e2fca","180","mooneymood","197485","","",""
"null","<div style=""font-size:60px;""> </div>","null","fixation","html-keyboard-response","5","36814","0.0-5.0-0.0","5bb4f557e2c4e100010e2fca","180","mooneymood","197485","","",""
"","","","reveal","animate-transparency","6","40818","0.0-5.0-1.0","5bb4f557e2c4e100010e2fca","180","mooneymood","197485","","[]",""
"null","img/tt/0745tt.jpg","null","mooney","image-keyboard-response","7","41321","0.0-5.0-2.0","5bb4f557e2c4e100010e2fca","180","mooneymood","197485","","",""
"null","<div style=""font-size:60px;""> </div>","null","fixation","html-keyboard-response","8","41523","0.0-5.0-0.1","5bb4f557e2c4e100010e2fca","180","mooneymood","197485","","",""
"","","","reveal","animate-transparency","9","45525","0.0-5.0-1.1","5bb4f557e2c4e100010e2fca","180","mooneymood","197485","","[]",""
"null","img/tt/0331tt.jpg","null","mooney","image-keyboard-response","10","46027","0.0-5.0-2.1","5bb4f557e2c4e100010e2fca","180","mooneymood","197485","","",""
"null","<div style=""font-size:60px;""> </div>","null","fixation","html-keyboard-response","11","46228","0.0-5.0-0.2","5bb4f557e2c4e100010e2fca","180","mooneymood","197485","","",""
"","","","reveal","animate-transparency","12","50231","0.0-5.0-1.2","5bb4f557e2c4e100010e2fca","180","mooneymood","197485","","[]",""
"null","img/tt/0269tt.jpg","null","mooney","image-keyboard-response","13","50733","0.0-5.0-2.2","5bb4f557e2c4e100010e2fca","180","mooneymood","197485","","",""
"null","<div style=""font-size:60px;""> </div>","null","fixation","html-keyboard-response","14","50934","0.0-5.0-0.3","5bb4f557e2c4e100010e2fca","180","mooneymood","197485","","",""
"","","","reveal","animate-transparency","15","54937","0.0-5.0-1.3","5bb4f557e2c4e100010e2fca","180","mooneymood","197485","","[]",""
"null","img/tt/0611tt.jpg","null","mooney","image-keyboard-response","16","55439","0.0-5.0-2.3","5bb4f557e2c4e100010e2fca","180","mooneymood","197485","","",""
"null","<div style=""font-size:60px;""> </div>","null","fixation","html-keyboard-response","17","55642","0.0-5.0-0.4","5bb4f557e2c4e100010e2fca","180","mooneymood","197485","","",""
"","","","reveal","animate-transparency","18","59643","0.0-5.0-1.4","5bb4f557e2c4e100010e2fca","180","mooneymood","197485","","[]",""
"null","img/tt/0405tt.jpg","null","mooney","image-keyboard-response","19","60145","0.0-5.0-2.4","5bb4f557e2c4e100010e2fca","180","mooneymood","197485","","",""
"null","<div style=""font-size:60px;""> </div>","null","fixation","html-keyboard-response","20","60345","0.0-5.0-0.5","5bb4f557e2c4e100010e2fca","180","mooneymood","197485","","",""
"","","","reveal","animate-transparency","21","64348","0.0-5.0-1.5","5bb4f557e2c4e100010e2fca","180","mooneymood","197485","","[]",""
"null","img/tt/0672tt.jpg","null","mooney","image-keyboard-response","22","64849","0.0-5.0-2.5","5bb4f557e2c4e100010e2fca","180","mooneymood","197485","","",""
"null","<div style=""font-size:60px;""> </div>","null","fixation","html-keyboard-response","23","65050","0.0-5.0-0.6","5bb4f557e2c4e100010e2fca","180","mooneymood","197485","","",""
"","","","reveal","animate-transparency","24","69051","0.0-5.0-1.6","5bb4f557e2c4e100010e2fca","180","mooneymood","197485","","[]",""
"null","img/tt/0559tt.jpg","null","mooney","image-keyboard-response","25","69552","0.0-5.0-2.6","5bb4f557e2c4e100010e2fca","180","mooneymood","197485","","",""
"null","<div style=""font-size:60px;""> </div>","null","fixation","html-keyboard-response","26","69753","0.0-5.0-0.7","5bb4f557e2c4e100010e2fca","180","mooneymood","197485","","",""
"","","","reveal","animate-transparency","27","73754","0.0-5.0-1.7","5bb4f557e2c4e100010e2fca","180","mooneymood","197485","","[]",""
"null","img/tt/0040tt.jpg","null","mooney","image-keyboard-response","28","74256","0.0-5.0-2.7","5bb4f557e2c4e100010e2fca","180","mooneymood","197485","","",""
"null","<div style=""font-size:60px;""> </div>","null","fixation","html-keyboard-response","29","74457","0.0-5.0-0.8","5bb4f557e2c4e100010e2fca","180","mooneymood","197485","","",""
"","","","reveal","animate-transparency","30","78458","0.0-5.0-1.8","5bb4f557e2c4e100010e2fca","180","mooneymood","197485","","[]",""
"null","img/tt/0148tt.jpg","null","mooney","image-keyboard-response","31","78960","0.0-5.0-2.8","5bb4f557e2c4e100010e2fca","180","mooneymood","197485","","",""
"null","<div style=""font-size:60px;""> </div>","null","fixation","html-keyboard-response","32","79161","0.0-5.0-0.9","5bb4f557e2c4e100010e2fca","180","mooneymood","197485","","",""
"","","","reveal","animate-transparency","33","83163","0.0-5.0-1.9","5bb4f557e2c4e100010e2fca","180","mooneymood","197485","","[]",""
"null","img/tt/0070tt.jpg","null","mooney","image-keyboard-response","34","83665","0.0-5.0-2.9","5bb4f557e2c4e100010e2fca","180","mooneymood","197485","","",""
"null","<div style=""font-size:60px;""> </div>","null","fixation","html-keyboard-response","35","83866","0.0-5.0-0.10","5bb4f557e2c4e100010e2fca","180","mooneymood","197485","","",""
"","","","reveal","animate-transparency","36","87867","0.0-5.0-1.10","5bb4f557e2c4e100010e2fca","180","mooneymood","197485","","[]",""
"null","img/tt/0819tt.jpg","null","mooney","image-keyboard-response","37","88369","0.0-5.0-2.10","5bb4f557e2c4e100010e2fca","180","mooneymood","197485","","",""
"null","<div style=""font-size:60px;""> </div>","null","fixation","html-keyboard-response","38","88571","0.0-5.0-0.11","5bb4f557e2c4e100010e2fca","180","mooneymood","197485","","",""
"","","","reveal","animate-transparency","39","92573","0.0-5.0-1.11","5bb4f557e2c4e100010e2fca","180","mooneymood","197485","","[]",""
"null","img/tt/0267tt.jpg","null","mooney","image-keyboard-response","40","93074","0.0-5.0-2.11","5bb4f557e2c4e100010e2fca","180","mooneymood","197485","","",""
"null","<div style=""font-size:60px;""> </div>","null","fixation","html-keyboard-response","41","93276","0.0-5.0-0.12","5bb4f557e2c4e100010e2fca","180","mooneymood","197485","","",""
"","","","reveal","animate-transparency","42","97278","0.0-5.0-1.12","5bb4f557e2c4e100010e2fca","180","mooneymood","197485","","[]",""
"null","img/tt/0505tt.jpg","null","mooney","image-keyboard-response","43","97780","0.0-5.0-2.12","5bb4f557e2c4e100010e2fca","180","mooneymood","197485","","",""
"null","<div style=""font-size:60px;""> </div>","null","fixation","html-keyboard-response","44","97981","0.0-5.0-0.13","5bb4f557e2c4e100010e2fca","180","mooneymood","197485","","",""
"","","","reveal","animate-transparency","45","101984","0.0-5.0-1.13","5bb4f557e2c4e100010e2fca","180","mooneymood","197485","","[]",""
"null","img/tt/0818tt.jpg","null","mooney","image-keyboard-response","46","102486","0.0-5.0-2.13","5bb4f557e2c4e100010e2fca","180","mooneymood","197485","","",""
"null","<div style=""font-size:60px;""> </div>","null","fixation","html-keyboard-response","47","102686","0.0-5.0-0.14","5bb4f557e2c4e100010e2fca","180","mooneymood","197485","","",""
"","","","reveal","animate-transparency","48","106689","0.0-5.0-1.14","5bb4f557e2c4e100010e2fca","180","mooneymood","197485","","[]",""
"null","img/tt/0137tt.jpg","null","mooney","image-keyboard-response","49","107190","0.0-5.0-2.14","5bb4f557e2c4e100010e2fca","180","mooneymood","197485","","",""
"null","<div style=""font-size:60px;""> </div>","null","fixation","html-keyboard-response","50","107392","0.0-5.0-0.15","5bb4f557e2c4e100010e2fca","180","mooneymood","197485","","",""
"","","","reveal","animate-transparency","51","111394","0.0-5.0-1.15","5bb4f557e2c4e100010e2fca","180","mooneymood","197485","","[]",""
"null","img/tt/0479tt.jpg","null","mooney","image-keyboard-response","52","111894","0.0-5.0-2.15","5bb4f557e2c4e100010e2fca","180","mooneymood","197485","","",""
"null","<div style=""font-size:60px;""> </div>","null","fixation","html-keyboard-response","53","112095","0.0-5.0-0.16","5bb4f557e2c4e100010e2fca","180","mooneymood","197485","","",""
"","","","reveal","animate-transparency","54","116097","0.0-5.0-1.16","5bb4f557e2c4e100010e2fca","180","mooneymood","197485","","[]",""
"null","img/tt/0779tt.jpg","null","mooney","image-keyboard-response","55","116599","0.0-5.0-2.16","5bb4f557e2c4e100010e2fca","180","mooneymood","197485","","",""
"null","<div style=""font-size:60px;""> </div>","null","fixation","html-keyboard-response","56","116800","0.0-5.0-0.17","5bb4f557e2c4e100010e2fca","180","mooneymood","197485","","",""
"","","","reveal","animate-transparency","57","120802","0.0-5.0-1.17","5bb4f557e2c4e100010e2fca","180","mooneymood","197485","","[]",""
"null","img/tt/0712tt.jpg","null","mooney","image-keyboard-response","58","121305","0.0-5.0-2.17","5bb4f557e2c4e100010e2fca","180","mooneymood","197485","","",""
"null","<div style=""font-size:60px;""> </div>","null","fixation","html-keyboard-response","59","121507","0.0-5.0-0.18","5bb4f557e2c4e100010e2fca","180","mooneymood","197485","","",""
"","","","reveal","animate-transparency","60","125509","0.0-5.0-1.18","5bb4f557e2c4e100010e2fca","180","mooneymood","197485","","[]",""
"null","img/tt/0642tt.jpg","null","mooney","image-keyboard-response","61","126010","0.0-5.0-2.18","5bb4f557e2c4e100010e2fca","180","mooneymood","197485","","",""
"null","<div style=""font-size:60px;""> </div>","null","fixation","html-keyboard-response","62","126212","0.0-5.0-0.19","5bb4f557e2c4e100010e2fca","180","mooneymood","197485","","",""
"","","","reveal","animate-transparency","63","130213","0.0-5.0-1.19","5bb4f557e2c4e100010e2fca","180","mooneymood","197485","","[]",""
"null","img/tt/0252tt.jpg","null","mooney","image-keyboard-response","64","130715","0.0-5.0-2.19","5bb4f557e2c4e100010e2fca","180","mooneymood","197485","","",""
"null","<div style=""font-size:60px;""> </div>","null","fixation","html-keyboard-response","65","130917","0.0-5.0-0.20","5bb4f557e2c4e100010e2fca","180","mooneymood","197485","","",""
"","","","reveal","animate-transparency","66","134918","0.0-5.0-1.20","5bb4f557e2c4e100010e2fca","180","mooneymood","197485","","[]",""
"null","img/tt/0602tt.jpg","null","mooney","image-keyboard-response","67","135420","0.0-5.0-2.20","5bb4f557e2c4e100010e2fca","180","mooneymood","197485","","",""
"null","<div style=""font-size:60px;""> </div>","null","fixation","html-keyboard-response","68","135621","0.0-5.0-0.21","5bb4f557e2c4e100010e2fca","180","mooneymood","197485","","",""
"","","","reveal","animate-transparency","69","139627","0.0-5.0-1.21","5bb4f557e2c4e100010e2fca","180","mooneymood","197485","","[]",""
"null","img/tt/0613tt.jpg","null","mooney","image-keyboard-response","70","140130","0.0-5.0-2.21","5bb4f557e2c4e100010e2fca","180","mooneymood","197485","","",""
"null","<div style=""font-size:60px;""> </div>","null","fixation","html-keyboard-response","71","140331","0.0-5.0-0.22","5bb4f557e2c4e100010e2fca","180","mooneymood","197485","","",""
"","","","reveal","animate-transparency","72","144333","0.0-5.0-1.22","5bb4f557e2c4e100010e2fca","180","mooneymood","197485","","[]",""
"null","img/tt/0351tt.jpg","null","mooney","image-keyboard-response","73","144836","0.0-5.0-2.22","5bb4f557e2c4e100010e2fca","180","mooneymood","197485","","",""
"null","<div style=""font-size:60px;""> </div>","null","fixation","html-keyboard-response","74","145036","0.0-5.0-0.23","5bb4f557e2c4e100010e2fca","180","mooneymood","197485","","",""
"","","","reveal","animate-transparency","75","149039","0.0-5.0-1.23","5bb4f557e2c4e100010e2fca","180","mooneymood","197485","","[]",""
"null","img/tt/0041tt.jpg","null","mooney","image-keyboard-response","76","149541","0.0-5.0-2.23","5bb4f557e2c4e100010e2fca","180","mooneymood","197485","","",""
"null","<div style=""font-size:60px;""> </div>","null","fixation","html-keyboard-response","77","149742","0.0-5.0-0.24","5bb4f557e2c4e100010e2fca","180","mooneymood","197485","","",""
"","","","reveal","animate-transparency","78","153744","0.0-5.0-1.24","5bb4f557e2c4e100010e2fca","180","mooneymood","197485","","[]",""
"null","img/tt/0362tt.jpg","null","mooney","image-keyboard-response","79","154247","0.0-5.0-2.24","5bb4f557e2c4e100010e2fca","180","mooneymood","197485","","",""
"null","<div style=""font-size:60px;""> </div>","null","fixation","html-keyboard-response","80","154448","0.0-5.0-0.25","5bb4f557e2c4e100010e2fca","180","mooneymood","197485","","",""
"","","","reveal","animate-transparency","81","158452","0.0-5.0-1.25","5bb4f557e2c4e100010e2fca","180","mooneymood","197485","","[]",""
"null","img/tt/0320tt.jpg","null","mooney","image-keyboard-response","82","158955","0.0-5.0-2.25","5bb4f557e2c4e100010e2fca","180","mooneymood","197485","","",""
"null","<div style=""font-size:60px;""> </div>","null","fixation","html-keyboard-response","83","159155","0.0-5.0-0.26","5bb4f557e2c4e100010e2fca","180","mooneymood","197485","","",""
"","","","reveal","animate-transparency","84","163157","0.0-5.0-1.26","5bb4f557e2c4e100010e2fca","180","mooneymood","197485","","[]",""
"null","img/tt/0281tt.jpg","null","mooney","image-keyboard-response","85","163659","0.0-5.0-2.26","5bb4f557e2c4e100010e2fca","180","mooneymood","197485","","",""
"null","<div style=""font-size:60px;""> </div>","null","fixation","html-keyboard-response","86","163859","0.0-5.0-0.27","5bb4f557e2c4e100010e2fca","180","mooneymood","197485","","",""
"","","","reveal","animate-transparency","87","167861","0.0-5.0-1.27","5bb4f557e2c4e100010e2fca","180","mooneymood","197485","","[]",""
"null","img/tt/0684tt.jpg","null","mooney","image-keyboard-response","88","168362","0.0-5.0-2.27","5bb4f557e2c4e100010e2fca","180","mooneymood","197485","","",""
"null","<div style=""font-size:60px;""> </div>","null","fixation","html-keyboard-response","89","168563","0.0-5.0-0.28","5bb4f557e2c4e100010e2fca","180","mooneymood","197485","","",""
"","","","reveal","animate-transparency","90","172564","0.0-5.0-1.28","5bb4f557e2c4e100010e2fca","180","mooneymood","197485","","[]",""
"null","img/tt/0403tt.jpg","null","mooney","image-keyboard-response","91","173065","0.0-5.0-2.28","5bb4f557e2c4e100010e2fca","180","mooneymood","197485","","",""
"null","<div style=""font-size:60px;""> </div>","null","fixation","html-keyboard-response","92","173267","0.0-5.0-0.29","5bb4f557e2c4e100010e2fca","180","mooneymood","197485","","",""
"","","","reveal","animate-transparency","93","177268","0.0-5.0-1.29","5bb4f557e2c4e100010e2fca","180","mooneymood","197485","","[]",""
"null","img/tt/0705tt.jpg","null","mooney","image-keyboard-response","94","177771","0.0-5.0-2.29","5bb4f557e2c4e100010e2fca","180","mooneymood","197485","","",""
"13905","","","posttest","survey-text","95","191676","0.0-6.0","5bb4f557e2c4e100010e2fca","180","mooneymood","197485","","{""Q0"":""Happy, Scared""}",""
"5808","<div style='word-wrap: break-word; width: 900px'><h1>Thank you!</h1><p>You completed the experiment. As you noticed we were interested in incidental (non-intentional) learning (not in your memory for images), and in how it is affected by in-between intentional learning of different materials. Apologies for misleading you.</p><p>Press any key to return to Prolific and confirm completion...</p></div>","13","instructions","html-keyboard-response","96","197484","0.0-7.0","5bb4f557e2c4e100010e2fca","180","mooneymood","197485","","",""
