,stimulus,key_press,test_part,trial_type,trial_index,time_elapsed,internal_node_id,subject,condition,experiment_name,totalTime,button_pressed,responses,order,remembered,poswords,negwords,confabpos,confabneg,confab,rememberedwords,totalwords,NAS,PAS
0,,,panas_questionnaire,survey-likert,3,92537,0.0-3.0,59c0de1c754a19000111c362,180,mooneymood,7.638883333333333,,"{""Q0"":0,""Q1"":1,""Q2"":1,""Q3"":3,""Q4"":3,""Q5"":2,""Q6"":3,""Q7"":0,""Q8"":0,""Q9"":0,""Q10"":1,""Q11"":1,""Q12"":0,""Q13"":1,""Q14"":1,""Q15"":0,""Q16"":0,""Q17"":4,""Q18"":0,""Q19"":4}","Distressed,Upset,Nervous,Proud,Enthusiastic,Excited,Strong,Scared,Guilty,Determined,Inspired,Alert,Irritable,Ashamed,Attentive,Jittery,Hostile,Interested,Afraid,Active","scared, ashamed, irritable, proud, motivated, inspired, sad, positive",4,5,2,2,4,"['scared', 'ashamed', 'irritable', 'proud', 'motivated', 'inspired', 'sad', 'positive']",8,3,19
1,,,panas_questionnaire,survey-likert,3,152817,0.0-3.0,5b9044561bfa0e000164ca85,0,mooneymood,9.731733333333333,,"{""Q0"":2,""Q1"":1,""Q2"":1,""Q3"":2,""Q4"":3,""Q5"":2,""Q6"":3,""Q7"":0,""Q8"":1,""Q9"":1,""Q10"":0,""Q11"":2,""Q12"":0,""Q13"":1,""Q14"":3,""Q15"":2,""Q16"":2,""Q17"":0,""Q18"":1,""Q19"":3}","Interested,Distressed,Nervous,Attentive,Excited,Hostile,Proud,Ashamed,Strong,Guilty,Jittery,Inspired,Afraid,Enthusiastic,Irritable,Alert,Determined,Scared,Active,Upset","upset, irritated, excited, attentive, scared, happy, anxious nervous, proud, guilty, confident, interested, frustrated",7,7,3,3,6,"['upset', 'irritated', 'excited', 'attentive', 'scared', 'happy', 'anxious', 'nervous', 'proud', 'guilty', 'confident', 'interested', 'frustrated']",13,11,18
2,,,panas_questionnaire,survey-likert,3,85232,0.0-3.0,5a2aec00443c100001211332,180,mooneymood,5.3475166666666665,,"{""Q0"":1,""Q1"":0,""Q2"":1,""Q3"":2,""Q4"":2,""Q5"":1,""Q6"":2,""Q7"":3,""Q8"":1,""Q9"":2,""Q10"":0,""Q11"":0,""Q12"":0,""Q13"":0,""Q14"":0,""Q15"":0,""Q16"":3,""Q17"":1,""Q18"":0,""Q19"":1}","Distressed,Proud,Alert,Active,Upset,Determined,Hostile,Nervous,Enthusiastic,Attentive,Strong,Guilty,Afraid,Scared,Ashamed,Inspired,Irritable,Interested,Jittery,Excited","inspired, scared, anxious, motivated, strong, nervous, guilty, irritable, angry, active, ",4,6,1,2,3,"['inspired', 'scared', 'anxious', 'motivated', 'strong', 'nervous', 'guilty', 'irritable', 'angry', 'active']",10,11,8
3,,,panas_questionnaire,survey-likert,3,125889,0.0-3.0,5b12dbf1bd9c31000156cbc1,180,mooneymood,5.46115,,"{""Q0"":2,""Q1"":0,""Q2"":1,""Q3"":1,""Q4"":2,""Q5"":1,""Q6"":1,""Q7"":0,""Q8"":3,""Q9"":3,""Q10"":4,""Q11"":1,""Q12"":3,""Q13"":3,""Q14"":1,""Q15"":3,""Q16"":3,""Q17"":1,""Q18"":1,""Q19"":4}","Excited,Distressed,Afraid,Alert,Nervous,Jittery,Hostile,Scared,Inspired,Active,Determined,Upset,Proud,Attentive,Irritable,Strong,Enthusiastic,Ashamed,Guilty,Interested","excited, interested, determined, inspired, scared, afraid, guilty, ashamed, strong, nervous, jittery, ",5,6,0,0,0,"['excited', 'interested', 'determined', 'inspired', 'scared', 'afraid', 'guilty', 'ashamed', 'strong', 'nervous', 'jittery']",11,9,26
4,,,panas_questionnaire,survey-likert,3,117409,0.0-3.0,5a6c0147d5d4cb0001d659e4,0,mooneymood,6.631566666666667,,"{""Q0"":0,""Q1"":0,""Q2"":2,""Q3"":0,""Q4"":0,""Q5"":3,""Q6"":2,""Q7"":0,""Q8"":0,""Q9"":4,""Q10"":0,""Q11"":3,""Q12"":1,""Q13"":0,""Q14"":0,""Q15"":3,""Q16"":2,""Q17"":4,""Q18"":0,""Q19"":3}","Jittery,Nervous,Determined,Distressed,Guilty,Active,Strong,Scared,Hostile,Attentive,Ashamed,Alert,Proud,Irritable,Afraid,Interested,Inspired,Enthusiastic,Upset,Excited","determined, anxious, excited, interested, nervous, jittery, scared, ",3,4,0,1,1,"['determined', 'anxious', 'excited', 'interested', 'nervous', 'jittery', 'scared']",7,0,23
5,,,panas_questionnaire,survey-likert,3,125565,0.0-3.0,5aec425023e2ca000197591b,0,mooneymood,6.860683333333333,,"{""Q0"":0,""Q1"":3,""Q2"":1,""Q3"":1,""Q4"":2,""Q5"":2,""Q6"":0,""Q7"":2,""Q8"":0,""Q9"":1,""Q10"":1,""Q11"":0,""Q12"":2,""Q13"":0,""Q14"":3,""Q15"":2,""Q16"":1,""Q17"":0,""Q18"":2,""Q19"":3}","Hostile,Active,Nervous,Afraid,Inspired,Excited,Ashamed,Enthusiastic,Irritable,Upset,Scared,Jittery,Alert,Distressed,Determined,Interested,Proud,Guilty,Attentive,Strong","guilty, scared, proud, strong, anxious, attentive, interested",4,3,0,1,1,"['guilty', 'scared', 'proud', 'strong', 'anxious', 'attentive', 'interested']",7,4,20
6,,,panas_questionnaire,survey-likert,3,70724,0.0-3.0,5b7c89c4db11320001c43c05,0,mooneymood,7.02575,,"{""Q0"":4,""Q1"":2,""Q2"":2,""Q3"":2,""Q4"":1,""Q5"":2,""Q6"":2,""Q7"":1,""Q8"":1,""Q9"":1,""Q10"":2,""Q11"":2,""Q12"":4,""Q13"":1,""Q14"":2,""Q15"":1,""Q16"":1,""Q17"":1,""Q18"":1,""Q19"":1}","Attentive,Active,Enthusiastic,Interested,Nervous,Inspired,Excited,Distressed,Hostile,Jittery,Strong,Proud,Alert,Guilty,Determined,Ashamed,Upset,Irritable,Afraid,Scared","hostile, alert, attentive, jittery, scared, afraid, upset, distressed, nervous",2,7,0,0,0,"['hostile', 'alert', 'attentive', 'jittery', 'scared', 'afraid', 'upset', 'distressed', 'nervous']",9,10,22
7,,,panas_questionnaire,survey-likert,3,87519,0.0-3.0,5ad35bcdfb109b0001a32b20,180,mooneymood,5.205866666666667,,"{""Q0"":2,""Q1"":1,""Q2"":3,""Q3"":4,""Q4"":3,""Q5"":1,""Q6"":0,""Q7"":0,""Q8"":2,""Q9"":3,""Q10"":1,""Q11"":3,""Q12"":3,""Q13"":2,""Q14"":2,""Q15"":0,""Q16"":4,""Q17"":2,""Q18"":1,""Q19"":1}","Determined,Guilty,Enthusiastic,Strong,Proud,Ashamed,Nervous,Upset,Inspired,Alert,Afraid,Interested,Attentive,Hostile,Excited,Jittery,Active,Scared,Irritable,Distressed","scared,nervous,distressed,active,alert,hostile,jealous",2,5,0,1,1,"['scared', 'nervous', 'distressed', 'active', 'alert', 'hostile', 'jealous']",7,9,26
8,,,panas_questionnaire,survey-likert,3,87431,0.0-3.0,5b2192216f3b6a000174b585,180,mooneymood,6.53965,,"{""Q0"":3,""Q1"":0,""Q2"":4,""Q3"":2,""Q4"":2,""Q5"":0,""Q6"":4,""Q7"":1,""Q8"":0,""Q9"":0,""Q10"":0,""Q11"":2,""Q12"":3,""Q13"":2,""Q14"":3,""Q15"":3,""Q16"":4,""Q17"":0,""Q18"":0,""Q19"":0}","Alert,Scared,Determined,Excited,Interested,Afraid,Strong,Irritable,Hostile,Nervous,Ashamed,Inspired,Active,Upset,Proud,Enthusiastic,Attentive,Distressed,Guilty,Jittery","angry
afraid
scared
guilty
ashamed
excited
upset
distressed
hostile
nervous
strong
proud
",3,9,0,1,1,"['angry', 'afraid', 'scared', 'guilty', 'ashamed', 'excited', 'upset', 'distressed', 'hostile', 'nervous', 'strong', 'proud']",12,3,27
9,,,panas_questionnaire,survey-likert,3,102749,0.0-3.0,56cb3d8c08d730000afd2f12,0,mooneymood,6.540633333333333,,"{""Q0"":1,""Q1"":3,""Q2"":0,""Q3"":3,""Q4"":3,""Q5"":4,""Q6"":3,""Q7"":3,""Q8"":1,""Q9"":0,""Q10"":0,""Q11"":0,""Q12"":2,""Q13"":2,""Q14"":3,""Q15"":0,""Q16"":3,""Q17"":0,""Q18"":0,""Q19"":0}","Jittery,Strong,Upset,Attentive,Alert,Active,Determined,Enthusiastic,Irritable,Nervous,Hostile,Guilty,Inspired,Excited,Interested,Afraid,Proud,Distressed,Ashamed,Scared","jittery,alert,hostile,attentive,guilty,excitment,afraid,scared,",3,5,1,0,1,"['jittery', 'alert', 'hostile', 'attentive', 'guilty', 'excitment', 'afraid', 'scared']",8,2,26
10,,,panas_questionnaire,survey-likert,3,104099,0.0-3.0,5b64cabacda8590001dab389,180,mooneymood,6.954316666666666,,"{""Q0"":0,""Q1"":0,""Q2"":3,""Q3"":4,""Q4"":1,""Q5"":4,""Q6"":3,""Q7"":4,""Q8"":3,""Q9"":4,""Q10"":1,""Q11"":4,""Q12"":2,""Q13"":4,""Q14"":3,""Q15"":3,""Q16"":4,""Q17"":4,""Q18"":4,""Q19"":2}","Excited,Proud,Strong,Determined,Interested,Ashamed,Inspired,Distressed,Attentive,Afraid,Enthusiastic,Scared,Hostile,Alert,Guilty,Active,Irritable,Upset,Nervous,Jittery","Attentive, Distressed, Excited, Upset, Irritable, Scared, Worried, Determined, Inspired, ",4,5,0,1,1,"['attentive', 'distressed', 'excited', 'upset', 'irritable', 'scared', 'worried', 'determined', 'inspired']",9,35,21
11,,,panas_questionnaire,survey-likert,3,139485,0.0-3.0,5ae98564b7798500019262b2,180,mooneymood,5.918533333333333,,"{""Q0"":2,""Q1"":0,""Q2"":1,""Q3"":1,""Q4"":0,""Q5"":3,""Q6"":0,""Q7"":2,""Q8"":0,""Q9"":0,""Q10"":1,""Q11"":2,""Q12"":1,""Q13"":2,""Q14"":0,""Q15"":1,""Q16"":2,""Q17"":1,""Q18"":2,""Q19"":1}","Nervous,Excited,Determined,Alert,Ashamed,Strong,Guilty,Attentive,Afraid,Scared,Jittery,Active,Enthusiastic,Interested,Irritable,Proud,Upset,Distressed,Inspired,Hostile","ashamed, afraid, scared, nervous, ",0,4,0,0,0,"['ashamed', 'afraid', 'scared', 'nervous']",4,7,14
12,,,panas_questionnaire,survey-likert,3,85482,0.0-3.0,59c177605c50560001df944c,180,mooneymood,5.121833333333333,,"{""Q0"":0,""Q1"":3,""Q2"":1,""Q3"":0,""Q4"":2,""Q5"":3,""Q6"":1,""Q7"":0,""Q8"":0,""Q9"":0,""Q10"":0,""Q11"":1,""Q12"":1,""Q13"":2,""Q14"":1,""Q15"":0,""Q16"":0,""Q17"":1,""Q18"":2,""Q19"":0}","Jittery,Interested,Strong,Distressed,Enthusiastic,Alert,Irritable,Ashamed,Nervous,Hostile,Guilty,Excited,Determined,Proud,Active,Afraid,Upset,Inspired,Attentive,Scared","Angry, agitated, emotional, happy, nervous, scared, attentive, sad, guilty, ashamed, ",3,9,2,5,7,"['angry', 'agitated', 'emotional', 'happy', 'nervous', 'scared', 'attentive', 'sad', 'guilty', 'ashamed']",10,1,15
13,,,panas_questionnaire,survey-likert,3,33470,0.0-3.0,5bb4f557e2c4e100010e2fca,180,mooneymood,3.2914166666666667,,"{""Q0"":2,""Q1"":1,""Q2"":2,""Q3"":2,""Q4"":1,""Q5"":3,""Q6"":2,""Q7"":2,""Q8"":3,""Q9"":3,""Q10"":1,""Q11"":1,""Q12"":2,""Q13"":1,""Q14"":3,""Q15"":3,""Q16"":2,""Q17"":1,""Q18"":1,""Q19"":3}","Strong,Upset,Proud,Ashamed,Guilty,Hostile,Scared,Attentive,Interested,Enthusiastic,Afraid,Jittery,Inspired,Nervous,Determined,Excited,Active,Alert,Distressed,Irritable","Happy, Scared",2,1,2,0,2,"['happy', 'scared']",2,16,20
14,,,panas_questionnaire,survey-likert,3,182884,0.0-3.0,59d65ad8e2762800015eb51b,0,mooneymood,8.51635,,"{""Q0"":0,""Q1"":4,""Q2"":2,""Q3"":3,""Q4"":0,""Q5"":0,""Q6"":3,""Q7"":0,""Q8"":0,""Q9"":3,""Q10"":3,""Q11"":0,""Q12"":0,""Q13"":3,""Q14"":0,""Q15"":0,""Q16"":0,""Q17"":3,""Q18"":3,""Q19"":3}","Nervous,Attentive,Excited,Strong,Hostile,Scared,Proud,Distressed,Upset,Determined,Inspired,Afraid,Ashamed,Active,Guilty,Jittery,Irritable,Enthusiastic,Alert,Interested","Proud, Excited, Inspired, attentive, interested, active, afraid, nervous, jittery",6,3,0,0,0,"['proud', 'excited', 'inspired', 'attentive', 'interested', 'active', 'afraid', 'nervous', 'jittery']",9,0,27
15,,,panas_questionnaire,survey-likert,3,301915,0.0-3.0,5b2e555e1d2f710001fb34ae,180,mooneymood,14.871583333333334,,"{""Q0"":3,""Q1"":3,""Q2"":3,""Q3"":0,""Q4"":4,""Q5"":0,""Q6"":3,""Q7"":0,""Q8"":0,""Q9"":3,""Q10"":3,""Q11"":4,""Q12"":2,""Q13"":3,""Q14"":0,""Q15"":0,""Q16"":3,""Q17"":2,""Q18"":0,""Q19"":2}","Alert,Distressed,Proud,Strong,Excited,Hostile,Nervous,Ashamed,Afraid,Jittery,Attentive,Interested,Enthusiastic,Upset,Guilty,Irritable,Inspired,Active,Scared,Determined","Distressed, enthusiastic, feared, proud, inspired, afflicted, excited, guilty, strong, nervous, alert, interrested, attentive,frightened",8,6,0,3,3,"['distressed', 'enthusiastic', 'feared', 'proud', 'inspired', 'afflicted', 'excited', 'guilty', 'strong', 'nervous', 'alert', 'interrested', 'attentive', 'frightened']",14,12,24
16,,,panas_questionnaire,survey-likert,3,62087,0.0-3.0,5bbf5a027d252e000105bda9,180,mooneymood,5.014,,"{""Q0"":0,""Q1"":3,""Q2"":0,""Q3"":1,""Q4"":0,""Q5"":1,""Q6"":0,""Q7"":3,""Q8"":2,""Q9"":3,""Q10"":1,""Q11"":3,""Q12"":0,""Q13"":3,""Q14"":2,""Q15"":3,""Q16"":3,""Q17"":0,""Q18"":2,""Q19"":3}","Afraid,Interested,Guilty,Distressed,Ashamed,Upset,Hostile,Inspired,Attentive,Strong,Nervous,Alert,Irritable,Enthusiastic,Jittery,Excited,Active,Scared,Proud,Determined","Scared, Proud, Nervous, Excited, Jittery, Strong, Afraid",3,4,0,0,0,"['scared', 'proud', 'nervous', 'excited', 'jittery', 'strong', 'afraid']",7,5,25
17,,,panas_questionnaire,survey-likert,3,65263,0.0-3.0,5bb4b4ce595b9c00017aea81,0,mooneymood,6.0981,,"{""Q0"":1,""Q1"":0,""Q2"":3,""Q3"":1,""Q4"":0,""Q5"":3,""Q6"":4,""Q7"":3,""Q8"":1,""Q9"":3,""Q10"":1,""Q11"":1,""Q12"":2,""Q13"":0,""Q14"":2,""Q15"":1,""Q16"":3,""Q17"":3,""Q18"":0,""Q19"":3}","Guilty,Afraid,Enthusiastic,Irritable,Upset,Alert,Excited,Inspired,Scared,Interested,Nervous,Jittery,Strong,Distressed,Active,Ashamed,Attentive,Proud,Hostile,Determined","nervous, irritable, scared, jittery, hostile, proud, determined, excited, guilty, strong, enthusiastic",5,6,0,0,0,"['nervous', 'irritable', 'scared', 'jittery', 'hostile', 'proud', 'determined', 'excited', 'guilty', 'strong', 'enthusiastic']",11,6,26
18,,,panas_questionnaire,survey-likert,3,92430,0.0-3.0,5bc745ddf6a8420001f15b8f,180,mooneymood,8.380366666666667,,"{""Q0"":3,""Q1"":0,""Q2"":0,""Q3"":0,""Q4"":0,""Q5"":2,""Q6"":1,""Q7"":4,""Q8"":1,""Q9"":2,""Q10"":2,""Q11"":2,""Q12"":0,""Q13"":0,""Q14"":3,""Q15"":2,""Q16"":2,""Q17"":2,""Q18"":3,""Q19"":0}","Upset,Nervous,Jittery,Hostile,Guilty,Active,Inspired,Proud,Distressed,Determined,Attentive,Enthusiastic,Ashamed,Afraid,Interested,Strong,Alert,Irritable,Excited,Scared","Interested, afraid, anxious, ambitious, scared, angry, active, strong, happy, excited, proud, nervous",8,5,3,2,5,"['interested', 'afraid', 'anxious', 'ambitious', 'scared', 'angry', 'active', 'strong', 'happy', 'excited', 'proud', 'nervous']",12,6,21
19,,,panas_questionnaire,survey-likert,3,124560,0.0-3.0,5932f5d4991e160001effbd2,180,mooneymood,7.420133333333333,,"{""Q0"":3,""Q1"":2,""Q2"":2,""Q3"":3,""Q4"":0,""Q5"":3,""Q6"":3,""Q7"":0,""Q8"":0,""Q9"":2,""Q10"":1,""Q11"":4,""Q12"":0,""Q13"":3,""Q14"":3,""Q15"":0,""Q16"":1,""Q17"":0,""Q18"":0,""Q19"":4}","Enthusiastic,Distressed,Irritable,Attentive,Scared,Determined,Excited,Nervous,Guilty,Inspired,Jittery,Alert,Afraid,Strong,Active,Upset,Proud,Ashamed,Hostile,Interested",relaxing wild fear happiness nature contented ,3,1,3,1,4,"['relaxing', 'wild', 'fear', 'happiness', 'nature', 'contented']",6,5,26
20,,,panas_questionnaire,survey-likert,3,69527,0.0-3.0,594c69ee4b07c400013aa466,180,mooneymood,6.079983333333334,,"{""Q0"":3,""Q1"":2,""Q2"":2,""Q3"":2,""Q4"":1,""Q5"":3,""Q6"":2,""Q7"":2,""Q8"":3,""Q9"":1,""Q10"":3,""Q11"":2,""Q12"":0,""Q13"":1,""Q14"":2,""Q15"":3,""Q16"":2,""Q17"":1,""Q18"":2,""Q19"":2}","Irritable,Interested,Proud,Attentive,Jittery,Excited,Inspired,Strong,Active,Distressed,Nervous,Enthusiastic,Guilty,Ashamed,Scared,Determined,Upset,Alert,Afraid,Hostile","Jittery, Ashamed, Guilty, Combative, Excited, Embarrassed, Happy, Enthusiastic, Scared, Active",5,5,2,1,3,"['jittery', 'ashamed', 'guilty', 'combative', 'excited', 'embarrassed', 'happy', 'enthusiastic', 'scared', 'active']",10,17,20
21,,,panas_questionnaire,survey-likert,3,76096,0.0-3.0,5b47624a8a290a00019b19bf,0,mooneymood,4.932333333333333,,"{""Q0"":1,""Q1"":1,""Q2"":2,""Q3"":2,""Q4"":2,""Q5"":3,""Q6"":2,""Q7"":2,""Q8"":2,""Q9"":0,""Q10"":3,""Q11"":3,""Q12"":2,""Q13"":2,""Q14"":3,""Q15"":3,""Q16"":1,""Q17"":0,""Q18"":0,""Q19"":1}","Scared,Guilty,Inspired,Strong,Proud,Excited,Attentive,Irritable,Determined,Hostile,Jittery,Nervous,Active,Alert,Interested,Enthusiastic,Upset,Ashamed,Distressed,Afraid","nervous, jittery, excited, irritable, guilty, ashamed, active, proud, interested",4,5,0,0,0,"['nervous', 'jittery', 'excited', 'irritable', 'guilty', 'ashamed', 'active', 'proud', 'interested']",9,12,20
22,,,panas_questionnaire,survey-likert,3,506456,0.0-3.0,5a4bf67e53a4560001ba0f03,0,mooneymood,15.552833333333334,,"{""Q0"":1,""Q1"":0,""Q2"":0,""Q3"":1,""Q4"":0,""Q5"":1,""Q6"":0,""Q7"":0,""Q8"":0,""Q9"":0,""Q10"":0,""Q11"":0,""Q12"":0,""Q13"":0,""Q14"":0,""Q15"":0,""Q16"":0,""Q17"":0,""Q18"":0,""Q19"":0}","Determined,Ashamed,Hostile,Excited,Guilty,Active,Irritable,Distressed,Scared,Strong,Enthusiastic,Proud,Attentive,Interested,Inspired,Upset,Jittery,Afraid,Nervous,Alert",happy,2,0,2,0,2,['happy'],1,0,3
23,,,panas_questionnaire,survey-likert,3,99452,0.0-3.0,59ad42650acd5600012ec0b0,180,mooneymood,8.9035,,"{""Q0"":2,""Q1"":1,""Q2"":3,""Q3"":3,""Q4"":1,""Q5"":3,""Q6"":2,""Q7"":2,""Q8"":1,""Q9"":2,""Q10"":0,""Q11"":1,""Q12"":1,""Q13"":0,""Q14"":1,""Q15"":2,""Q16"":2,""Q17"":0,""Q18"":1,""Q19"":1}","Hostile,Strong,Afraid,Scared,Inspired,Nervous,Interested,Enthusiastic,Determined,Distressed,Ashamed,Alert,Upset,Proud,Guilty,Excited,Attentive,Jittery,Irritable,Active","hostile, jittery, upset, guilty, scared, nervous, ashamed, proud",1,7,0,0,0,"['hostile', 'jittery', 'upset', 'guilty', 'scared', 'nervous', 'ashamed', 'proud']",8,16,11
24,,,panas_questionnaire,survey-likert,3,79253,0.0-3.0,5aeaa6629bebfc0001cd65fa,0,mooneymood,5.4112833333333334,,"{""Q0"":4,""Q1"":1,""Q2"":1,""Q3"":1,""Q4"":2,""Q5"":2,""Q6"":3,""Q7"":3,""Q8"":3,""Q9"":1,""Q10"":2,""Q11"":2,""Q12"":0,""Q13"":1,""Q14"":3,""Q15"":2,""Q16"":3,""Q17"":4,""Q18"":1,""Q19"":3}","Determined,Hostile,Upset,Distressed,Interested,Jittery,Proud,Alert,Attentive,Irritable,Afraid,Ashamed,Strong,Active,Nervous,Scared,Excited,Enthusiastic,Guilty,Inspired","happy, excited, anxious, nervous, jittery, proud, scared, ashamed, enthusiastic, ",5,5,2,1,3,"['happy', 'excited', 'anxious', 'nervous', 'jittery', 'proud', 'scared', 'ashamed', 'enthusiastic']",9,16,22
25,,,panas_questionnaire,survey-likert,3,87441,0.0-3.0,5b1659a24c72120001f193c6,0,mooneymood,4.94625,,"{""Q0"":3,""Q1"":1,""Q2"":2,""Q3"":3,""Q4"":3,""Q5"":3,""Q6"":4,""Q7"":2,""Q8"":3,""Q9"":3,""Q10"":2,""Q11"":3,""Q12"":3,""Q13"":0,""Q14"":2,""Q15"":3,""Q16"":3,""Q17"":2,""Q18"":2,""Q19"":0}","Inspired,Ashamed,Irritable,Active,Excited,Interested,Alert,Afraid,Upset,Jittery,Strong,Enthusiastic,Determined,Guilty,Nervous,Distressed,Proud,Scared,Attentive,Hostile","Inspired, Distressed, Irritated, Enthusiastic, Restless, Active",3,3,0,2,2,"['inspired', 'distressed', 'irritated', 'enthusiastic', 'restless', 'active']",6,18,26
26,,,panas_questionnaire,survey-likert,3,104055,0.0-3.0,5af0e57597a14300017d14d1,180,mooneymood,6.9904166666666665,,"{""Q0"":0,""Q1"":0,""Q2"":0,""Q3"":0,""Q4"":3,""Q5"":0,""Q6"":2,""Q7"":2,""Q8"":1,""Q9"":4,""Q10"":1,""Q11"":0,""Q12"":0,""Q13"":4,""Q14"":4,""Q15"":0,""Q16"":0,""Q17"":0,""Q18"":0,""Q19"":1}","Upset,Nervous,Distressed,Ashamed,Determined,Proud,Strong,Irritable,Afraid,Interested,Guilty,Scared,Active,Alert,Attentive,Hostile,Jittery,Enthusiastic,Inspired,Excited","Strong,Excited,Proud,Hostil,Afraid,Guilty,Determined",4,3,0,0,0,"['strong', 'excited', 'proud', 'hostil', 'afraid', 'guilty', 'determined']",7,4,18
27,,,panas_questionnaire,survey-likert,3,59678,0.0-3.0,5b1550c851caaf00012290f4,180,mooneymood,4.8289333333333335,,"{""Q0"":0,""Q1"":0,""Q2"":0,""Q3"":3,""Q4"":0,""Q5"":3,""Q6"":0,""Q7"":3,""Q8"":0,""Q9"":0,""Q10"":2,""Q11"":0,""Q12"":2,""Q13"":2,""Q14"":2,""Q15"":2,""Q16"":0,""Q17"":2,""Q18"":0,""Q19"":2}","Distressed,Afraid,Scared,Determined,Jittery,Enthusiastic,Hostile,Attentive,Upset,Nervous,Inspired,Ashamed,Strong,Interested,Excited,Active,Irritable,Guilty,Alert,Proud","Agitate, enthusiastic, strong, unhappy, depressed, ",2,3,0,3,3,"['agitate', 'enthusiastic', 'strong', 'unhappy', 'depressed']",5,2,18
28,,,panas_questionnaire,survey-likert,3,113469,0.0-3.0,580618c894364b00011f46c2,180,mooneymood,5.304766666666667,,"{""Q0"":0,""Q1"":0,""Q2"":1,""Q3"":1,""Q4"":1,""Q5"":1,""Q6"":1,""Q7"":0,""Q8"":1,""Q9"":3,""Q10"":1,""Q11"":1,""Q12"":1,""Q13"":1,""Q14"":1,""Q15"":1,""Q16"":3,""Q17"":1,""Q18"":1,""Q19"":1}","Active,Determined,Distressed,Afraid,Excited,Scared,Proud,Strong,Inspired,Nervous,Enthusiastic,Hostile,Attentive,Interested,Guilty,Upset,Irritable,Ashamed,Alert,Jittery","irritated, active, inspired, ",2,1,0,1,1,"['irritated', 'active', 'inspired']",3,14,6
29,,,panas_questionnaire,survey-likert,3,102321,0.0-3.0,5bbcd6da56161d000100f9fb,180,mooneymood,6.24795,,"{""Q0"":4,""Q1"":1,""Q2"":3,""Q3"":4,""Q4"":3,""Q5"":0,""Q6"":0,""Q7"":4,""Q8"":1,""Q9"":1,""Q10"":4,""Q11"":0,""Q12"":4,""Q13"":1,""Q14"":0,""Q15"":1,""Q16"":4,""Q17"":1,""Q18"":4,""Q19"":4}","Determined,Hostile,Enthusiastic,Inspired,Excited,Ashamed,Afraid,Active,Nervous,Distressed,Strong,Guilty,Alert,Jittery,Scared,Irritable,Attentive,Upset,Proud,Interested","angry, inspired, happy, distressed, grateful, upset, irritable, excited, happy, scared, nervous",7,6,5,1,6,"['angry', 'inspired', 'happy', 'distressed', 'grateful', 'upset', 'irritable', 'excited', 'happy', 'scared', 'nervous']",11,6,35
30,,,panas_questionnaire,survey-likert,3,55325,0.0-3.0,5b06b6705a7fbd00017d6941,0,mooneymood,4.5907333333333336,,"{""Q0"":2,""Q1"":3,""Q2"":3,""Q3"":0,""Q4"":1,""Q5"":0,""Q6"":2,""Q7"":2,""Q8"":3,""Q9"":1,""Q10"":1,""Q11"":0,""Q12"":2,""Q13"":3,""Q14"":2,""Q15"":3,""Q16"":1,""Q17"":0,""Q18"":1,""Q19"":1}","Determined,Interested,Jittery,Ashamed,Upset,Distressed,Enthusiastic,Proud,Excited,Strong,Afraid,Guilty,Alert,Inspired,Active,Attentive,Scared,Hostile,Nervous,Irritable","irritable, motivated, angry, elated, jittery, hurt, stressed, happy, guilty",4,6,4,3,7,"['irritable', 'motivated', 'angry', 'elated', 'jittery', 'hurt', 'stressed', 'happy', 'guilty']",9,8,21
31,,,panas_questionnaire,survey-likert,3,138073,0.0-3.0,5b2a2fc98ecf3f000161e6dc,0,mooneymood,6.025333333333333,,"{""Q0"":0,""Q1"":1,""Q2"":4,""Q3"":2,""Q4"":4,""Q5"":2,""Q6"":3,""Q7"":1,""Q8"":1,""Q9"":2,""Q10"":4,""Q11"":2,""Q12"":3,""Q13"":1,""Q14"":3,""Q15"":0,""Q16"":1,""Q17"":0,""Q18"":2,""Q19"":2}","Scared,Strong,Hostile,Jittery,Attentive,Alert,Inspired,Distressed,Active,Nervous,Determined,Proud,Enthusiastic,Upset,Interested,Ashamed,Guilty,Afraid,Irritable,Excited","irritable, proud, determined,hostile, guilty, happy, content, ",5,3,3,0,3,"['irritable', 'proud', 'determined', 'hostile', 'guilty', 'happy', 'content']",7,13,22
32,,,panas_questionnaire,survey-likert,3,73831,0.0-3.0,59ef82fb6100f9000194ac70,0,mooneymood,5.624733333333333,,"{""Q0"":0,""Q1"":3,""Q2"":1,""Q3"":0,""Q4"":0,""Q5"":1,""Q6"":1,""Q7"":1,""Q8"":1,""Q9"":1,""Q10"":1,""Q11"":1,""Q12"":3,""Q13"":1,""Q14"":1,""Q15"":0,""Q16"":0,""Q17"":0,""Q18"":2,""Q19"":0}","Nervous,Interested,Upset,Hostile,Jittery,Active,Inspired,Enthusiastic,Attentive,Alert,Determined,Strong,Guilty,Distressed,Excited,Irritable,Afraid,Scared,Proud,Ashamed","Hostility, scared, guilty, shame, proud, jittery, nervous",1,6,0,2,2,"['hostility', 'scared', 'guilty', 'shame', 'proud', 'jittery', 'nervous']",7,5,12
33,,,panas_questionnaire,survey-likert,3,139732,0.0-3.0,59d3f0586cc82800013e31c3,0,mooneymood,8.19405,,"{""Q0"":1,""Q1"":2,""Q2"":1,""Q3"":2,""Q4"":0,""Q5"":3,""Q6"":3,""Q7"":1,""Q8"":3,""Q9"":3,""Q10"":3,""Q11"":0,""Q12"":1,""Q13"":3,""Q14"":1,""Q15"":1,""Q16"":1,""Q17"":3,""Q18"":1,""Q19"":3}","Attentive,Alert,Ashamed,Active,Strong,Upset,Afraid,Proud,Irritable,Jittery,Nervous,Excited,Enthusiastic,Scared,Determined,Hostile,Inspired,Guilty,Interested,Distressed","Agitated, angry, scared, excited, emotional, proud",2,4,0,3,3,"['agitated', 'angry', 'scared', 'excited', 'emotional', 'proud']",6,26,9
34,,,panas_questionnaire,survey-likert,3,107208,0.0-3.0,587973296e2f8d00015c6346,180,mooneymood,5.392833333333333,,"{""Q0"":1,""Q1"":2,""Q2"":3,""Q3"":1,""Q4"":2,""Q5"":2,""Q6"":1,""Q7"":2,""Q8"":2,""Q9"":2,""Q10"":2,""Q11"":3,""Q12"":2,""Q13"":3,""Q14"":2,""Q15"":2,""Q16"":3,""Q17"":2,""Q18"":2,""Q19"":1}","Afraid,Ashamed,Strong,Attentive,Interested,Nervous,Hostile,Proud,Excited,Irritable,Upset,Distressed,Jittery,Scared,Active,Enthusiastic,Determined,Inspired,Alert,Guilty","excited, guilty, strong, emotional, scared, afraid, ",2,4,0,1,1,"['excited', 'guilty', 'strong', 'emotional', 'scared', 'afraid']",6,19,19
35,,,panas_questionnaire,survey-likert,3,203202,0.0-3.0,5bc14d65904b2f000194b9c1,0,mooneymood,9.593916666666667,,"{""Q0"":2,""Q1"":3,""Q2"":0,""Q3"":0,""Q4"":1,""Q5"":1,""Q6"":0,""Q7"":0,""Q8"":2,""Q9"":2,""Q10"":2,""Q11"":1,""Q12"":0,""Q13"":0,""Q14"":2,""Q15"":2,""Q16"":0,""Q17"":2,""Q18"":2,""Q19"":3}","Enthusiastic,Active,Nervous,Jittery,Upset,Distressed,Hostile,Irritable,Attentive,Determined,Proud,Afraid,Guilty,Ashamed,Strong,Inspired,Scared,Alert,Excited,Interested","Active, Interested, upset, angry, inspired, determined, guilty, ashamed, aware, motivated, excited,",6,4,1,1,2,"['active', 'interested', 'upset', 'angry', 'inspired', 'determined', 'guilty', 'ashamed', 'aware', 'motivated', 'excited']",11,3,20
36,,,panas_questionnaire,survey-likert,3,88678,0.0-3.0,57754d57ca706f000190eaf1,180,mooneymood,6.046316666666667,,"{""Q0"":2,""Q1"":0,""Q2"":0,""Q3"":0,""Q4"":0,""Q5"":0,""Q6"":0,""Q7"":2,""Q8"":0,""Q9"":1,""Q10"":2,""Q11"":2,""Q12"":0,""Q13"":2,""Q14"":2,""Q15"":0,""Q16"":1,""Q17"":2,""Q18"":0,""Q19"":2}","Interested,Afraid,Jittery,Irritable,Nervous,Hostile,Guilty,Strong,Scared,Excited,Inspired,Attentive,Upset,Determined,Alert,Ashamed,Enthusiastic,Active,Distressed,Proud","scared, afraid, alert, strong, enthusiastic, jittery, content ",4,3,1,0,1,"['scared', 'afraid', 'alert', 'strong', 'enthusiastic', 'jittery', 'content']",7,0,17
37,,,panas_questionnaire,survey-likert,3,149850,0.0-3.0,5b920a69abfadc0001e7ffa9,0,mooneymood,7.650816666666667,,"{""Q0"":2,""Q1"":1,""Q2"":1,""Q3"":2,""Q4"":0,""Q5"":1,""Q6"":1,""Q7"":1,""Q8"":0,""Q9"":2,""Q10"":2,""Q11"":2,""Q12"":2,""Q13"":1,""Q14"":2,""Q15"":2,""Q16"":1,""Q17"":2,""Q18"":2,""Q19"":2}","Enthusiastic,Scared,Ashamed,Proud,Active,Nervous,Afraid,Attentive,Jittery,Alert,Determined,Hostile,Distressed,Guilty,Inspired,Irritable,Strong,Upset,Interested,Excited","Active, Scared, Guilty, Enthusiastic, Imaginative, Irritable, Proud, Inspired",5,3,1,0,1,"['active', 'scared', 'guilty', 'enthusiastic', 'imaginative', 'irritable', 'proud', 'inspired']",8,13,14
38,,,panas_questionnaire,survey-likert,3,99703,0.0-3.0,57fe48c390de420001673796,180,mooneymood,4.579133333333333,,"{""Q0"":1,""Q1"":0,""Q2"":0,""Q3"":1,""Q4"":1,""Q5"":2,""Q6"":1,""Q7"":0,""Q8"":1,""Q9"":1,""Q10"":1,""Q11"":1,""Q12"":0,""Q13"":0,""Q14"":1,""Q15"":1,""Q16"":2,""Q17"":0,""Q18"":1,""Q19"":0}","Attentive,Ashamed,Hostile,Distressed,Afraid,Determined,Nervous,Guilty,Excited,Enthusiastic,Jittery,Upset,Inspired,Irritable,Scared,Alert,Active,Proud,Interested,Strong",,0,0,0,0,0,[],0,6,8
39,,,panas_questionnaire,survey-likert,3,101845,0.0-3.0,5a577dd9e0cf3d000126491a,0,mooneymood,5.918066666666666,,"{""Q0"":1,""Q1"":0,""Q2"":1,""Q3"":2,""Q4"":2,""Q5"":1,""Q6"":2,""Q7"":1,""Q8"":0,""Q9"":0,""Q10"":1,""Q11"":2,""Q12"":2,""Q13"":2,""Q14"":0,""Q15"":1,""Q16"":0,""Q17"":0,""Q18"":0,""Q19"":2}","Distressed,Hostile,Upset,Inspired,Determined,Active,Enthusiastic,Alert,Afraid,Scared,Irritable,Interested,Proud,Strong,Nervous,Attentive,Guilty,Jittery,Ashamed,Excited","nervous, jittery, excited, anxious, guilty, proud",2,4,0,1,1,"['nervous', 'jittery', 'excited', 'anxious', 'guilty', 'proud']",6,3,15
40,,,panas_questionnaire,survey-likert,3,204962,0.0-3.0,58698bb61c35f200019555c6,180,mooneymood,11.125033333333333,,"{""Q0"":1,""Q1"":2,""Q2"":2,""Q3"":1,""Q4"":3,""Q5"":3,""Q6"":1,""Q7"":2,""Q8"":2,""Q9"":0,""Q10"":2,""Q11"":2,""Q12"":4,""Q13"":3,""Q14"":3,""Q15"":1,""Q16"":1,""Q17"":4,""Q18"":2,""Q19"":2}","Afraid,Inspired,Irritable,Upset,Hostile,Interested,Excited,Enthusiastic,Ashamed,Scared,Guilty,Jittery,Determined,Alert,Strong,Distressed,Proud,Active,Nervous,Attentive","upset, scared, afraid, ",0,3,0,0,0,"['upset', 'scared', 'afraid']",3,16,23
41,,,panas_questionnaire,survey-likert,3,53010,0.0-3.0,5ba48468af004e00015372c5,0,mooneymood,5.7035,,"{""Q0"":1,""Q1"":2,""Q2"":1,""Q3"":3,""Q4"":3,""Q5"":3,""Q6"":3,""Q7"":0,""Q8"":0,""Q9"":3,""Q10"":0,""Q11"":3,""Q12"":0,""Q13"":0,""Q14"":3,""Q15"":3,""Q16"":1,""Q17"":0,""Q18"":0,""Q19"":0}","Enthusiastic,Inspired,Hostile,Jittery,Nervous,Afraid,Attentive,Guilty,Ashamed,Determined,Scared,Strong,Irritable,Excited,Active,Interested,Alert,Upset,Distressed,Proud","anxious, optimistic, strong, ",2,1,1,1,2,"['anxious', 'optimistic', 'strong']",3,10,18
42,,,panas_questionnaire,survey-likert,3,103128,0.0-3.0,5b82e33f184f45000155f0ba,180,mooneymood,7.312566666666667,,"{""Q0"":3,""Q1"":0,""Q2"":0,""Q3"":0,""Q4"":2,""Q5"":0,""Q6"":3,""Q7"":0,""Q8"":0,""Q9"":1,""Q10"":1,""Q11"":3,""Q12"":0,""Q13"":3,""Q14"":0,""Q15"":1,""Q16"":2,""Q17"":2,""Q18"":1,""Q19"":3}","Upset,Excited,Enthusiastic,Strong,Jittery,Proud,Distressed,Ashamed,Active,Interested,Determined,Attentive,Hostile,Scared,Alert,Inspired,Irritable,Nervous,Guilty,Afraid","upset, angry, irritable, proud, jittery, motivated, inspired, guilty, ashamed, active, scared, alert",5,7,1,1,2,"['upset', 'angry', 'irritable', 'proud', 'jittery', 'motivated', 'inspired', 'guilty', 'ashamed', 'active', 'scared', 'alert']",12,19,6
43,,,panas_questionnaire,survey-likert,3,83941,0.0-3.0,5bc695f4d5e09a0001435c1e,0,mooneymood,6.2979666666666665,,"{""Q0"":3,""Q1"":3,""Q2"":1,""Q3"":1,""Q4"":3,""Q5"":0,""Q6"":3,""Q7"":1,""Q8"":0,""Q9"":3,""Q10"":1,""Q11"":4,""Q12"":0,""Q13"":1,""Q14"":4,""Q15"":0,""Q16"":4,""Q17"":0,""Q18"":0,""Q19"":2}","Strong,Attentive,Distressed,Scared,Excited,Ashamed,Determined,Nervous,Hostile,Irritable,Enthusiastic,Interested,Upset,Inspired,Proud,Afraid,Active,Jittery,Guilty,Alert","Afraid, attentive, jittery, proud, scared, nervous, curious, irritable, accomplished, happy,",6,5,4,0,4,"['afraid', 'attentive', 'jittery', 'proud', 'scared', 'nervous', 'curious', 'irritable', 'accomplished', 'happy']",10,6,27
44,,,panas_questionnaire,survey-likert,3,132212,0.0-3.0,5b0881a82e75960001b8b505,0,mooneymood,8.850716666666667,,"{""Q0"":3,""Q1"":3,""Q2"":2,""Q3"":3,""Q4"":3,""Q5"":3,""Q6"":2,""Q7"":1,""Q8"":1,""Q9"":2,""Q10"":2,""Q11"":1,""Q12"":1,""Q13"":3,""Q14"":2,""Q15"":3,""Q16"":3,""Q17"":2,""Q18"":2,""Q19"":1}","Inspired,Determined,Jittery,Excited,Interested,Ashamed,Alert,Distressed,Upset,Strong,Attentive,Hostile,Afraid,Guilty,Scared,Enthusiastic,Nervous,Irritable,Active,Proud","Strong, attentive, hostile, irritable, proud, scared, nervous, guilty, enthusiastic, active, alert, distressed, excited, motivated, jittery, upset",8,8,1,0,1,"['strong', 'attentive', 'hostile', 'irritable', 'proud', 'scared', 'nervous', 'guilty', 'enthusiastic', 'active', 'alert', 'distressed', 'excited', 'motivated', 'jittery', 'upset']",16,19,21
45,,,panas_questionnaire,survey-likert,3,69546,0.0-3.0,59da0b3103203500011acfec,180,mooneymood,5.321416666666667,,"{""Q0"":1,""Q1"":0,""Q2"":3,""Q3"":3,""Q4"":3,""Q5"":2,""Q6"":3,""Q7"":0,""Q8"":2,""Q9"":3,""Q10"":1,""Q11"":3,""Q12"":1,""Q13"":1,""Q14"":3,""Q15"":1,""Q16"":0,""Q17"":0,""Q18"":0,""Q19"":0}","Hostile,Ashamed,Inspired,Attentive,Interested,Active,Excited,Guilty,Strong,Enthusiastic,Alert,Determined,Upset,Afraid,Proud,Irritable,Scared,Jittery,Distressed,Nervous","inspired, guilty, scared, anxious, jittery, nervious, ",1,5,0,1,1,"['inspired', 'guilty', 'scared', 'anxious', 'jittery', 'nervious']",6,4,23
46,,,panas_questionnaire,survey-likert,3,141825,0.0-3.0,5ba1a06b0686690001f514ae,180,mooneymood,15.6351,,"{""Q0"":2,""Q1"":1,""Q2"":1,""Q3"":0,""Q4"":2,""Q5"":0,""Q6"":0,""Q7"":1,""Q8"":1,""Q9"":0,""Q10"":0,""Q11"":0,""Q12"":0,""Q13"":0,""Q14"":2,""Q15"":1,""Q16"":0,""Q17"":1,""Q18"":1,""Q19"":1}","Enthusiastic,Jittery,Inspired,Hostile,Attentive,Afraid,Guilty,Strong,Excited,Ashamed,Scared,Interested,Upset,Proud,Active,Alert,Distressed,Irritable,Determined,Nervous","jittery, nervous, determined, angry, inspired, irritated",2,4,0,2,2,"['jittery', 'nervous', 'determined', 'angry', 'inspired', 'irritated']",6,3,9
47,,,panas_questionnaire,survey-likert,3,99158,0.0-3.0,5a81d2b6190420000155d995,180,mooneymood,5.700733333333333,,"{""Q0"":3,""Q1"":2,""Q2"":1,""Q3"":1,""Q4"":3,""Q5"":3,""Q6"":3,""Q7"":2,""Q8"":1,""Q9"":1,""Q10"":3,""Q11"":1,""Q12"":2,""Q13"":3,""Q14"":3,""Q15"":2,""Q16"":1,""Q17"":2,""Q18"":3,""Q19"":3}","Interested,Guilty,Afraid,Inspired,Excited,Alert,Nervous,Scared,Upset,Distressed,Irritable,Enthusiastic,Ashamed,Attentive,Jittery,Determined,Proud,Hostile,Active,Strong","upset, afraid, guilty, ashamed, nervous, excited, scared.",1,6,0,0,0,"['upset', 'afraid', 'guilty', 'ashamed', 'nervous', 'excited', 'scared']",7,20,22
48,,,panas_questionnaire,survey-likert,3,41136,0.0-3.0,5b4b59fe3905740001273cfc,180,mooneymood,4.445883333333334,,"{""Q0"":0,""Q1"":0,""Q2"":2,""Q3"":2,""Q4"":0,""Q5"":0,""Q6"":0,""Q7"":0,""Q8"":2,""Q9"":2,""Q10"":2,""Q11"":2,""Q12"":0,""Q13"":2,""Q14"":3,""Q15"":0,""Q16"":0,""Q17"":0,""Q18"":2,""Q19"":1}","Hostile,Irritable,Proud,Enthusiastic,Jittery,Afraid,Scared,Ashamed,Attentive,Determined,Active,Interested,Nervous,Excited,Alert,Guilty,Distressed,Upset,Strong,Inspired","hostile, angry, happy, sad, alert, motivated, tired",4,5,3,4,7,"['hostile', 'angry', 'happy', 'sad', 'alert', 'motivated', 'tired']",7,0,18
49,,,panas_questionnaire,survey-likert,3,350592,0.0-3.0,595e3c9efd57df0001544678,0,mooneymood,11.658183333333334,,"{""Q0"":2,""Q1"":2,""Q2"":0,""Q3"":1,""Q4"":0,""Q5"":1,""Q6"":0,""Q7"":0,""Q8"":0,""Q9"":0,""Q10"":0,""Q11"":3,""Q12"":0,""Q13"":0,""Q14"":2,""Q15"":0,""Q16"":2,""Q17"":0,""Q18"":0,""Q19"":0}","Active,Interested,Nervous,Irritable,Enthusiastic,Hostile,Inspired,Jittery,Excited,Determined,Ashamed,Alert,Guilty,Afraid,Strong,Scared,Attentive,Upset,Distressed,Proud","afraid, alert, fearful, upset, proud, ",2,3,0,1,1,"['afraid', 'alert', 'fearful', 'upset', 'proud']",5,2,11
50,,,panas_questionnaire,survey-likert,3,95343,0.0-3.0,5bc4cb9c91353b0001f8cfb9,0,mooneymood,5.4032,,"{""Q0"":0,""Q1"":3,""Q2"":2,""Q3"":1,""Q4"":1,""Q5"":2,""Q6"":2,""Q7"":0,""Q8"":1,""Q9"":0,""Q10"":2,""Q11"":4,""Q12"":0,""Q13"":0,""Q14"":3,""Q15"":1,""Q16"":0,""Q17"":3,""Q18"":1,""Q19"":3}","Alert,Distressed,Afraid,Strong,Attentive,Jittery,Scared,Proud,Interested,Enthusiastic,Guilty,Ashamed,Hostile,Active,Nervous,Determined,Excited,Irritable,Inspired,Upset","afraid, scared, interested, bold, excited, active, upset, emotional, angry",4,5,1,2,3,"['afraid', 'scared', 'interested', 'bold', 'excited', 'active', 'upset', 'emotional', 'angry']",9,24,5
51,,,panas_questionnaire,survey-likert,3,57293,0.0-3.0,5a31441c12f583000121aed8,0,mooneymood,5.116016666666667,,"{""Q0"":3,""Q1"":3,""Q2"":4,""Q3"":2,""Q4"":3,""Q5"":4,""Q6"":1,""Q7"":1,""Q8"":2,""Q9"":2,""Q10"":1,""Q11"":3,""Q12"":3,""Q13"":1,""Q14"":0,""Q15"":3,""Q16"":2,""Q17"":4,""Q18"":0,""Q19"":1}","Alert,Enthusiastic,Strong,Attentive,Determined,Inspired,Afraid,Irritable,Distressed,Jittery,Scared,Interested,Upset,Guilty,Hostile,Active,Nervous,Excited,Ashamed,Proud","NERVOUS, STRONG, SCARED, WORRIED, EXCITED, ENTHUSISTIC, IRRITABLE, PROUD, ASHAMED, ACTIVE, ENERGETIC, ",6,5,1,1,2,"['nervous', 'strong', 'scared', 'worried', 'excited', 'enthusistic', 'irritable', 'proud', 'ashamed', 'active', 'energetic']",11,13,27
52,,,panas_questionnaire,survey-likert,3,61067,0.0-3.0,589a84282a697d0001cfcfc1,180,mooneymood,4.8882666666666665,,"{""Q0"":4,""Q1"":1,""Q2"":4,""Q3"":3,""Q4"":0,""Q5"":1,""Q6"":0,""Q7"":4,""Q8"":2,""Q9"":3,""Q10"":1,""Q11"":1,""Q12"":0,""Q13"":3,""Q14"":1,""Q15"":3,""Q16"":0,""Q17"":2,""Q18"":0,""Q19"":4}","Determined,Nervous,Attentive,Strong,Scared,Upset,Proud,Active,Excited,Interested,Afraid,Distressed,Hostile,Enthusiastic,Irritable,Inspired,Ashamed,Jittery,Guilty,Alert","proud, afraid, jittery, alert, angry, sad, motivated, hostile.",3,6,1,3,4,"['proud', 'afraid', 'jittery', 'alert', 'angry', 'sad', 'motivated', 'hostile']",8,7,27
53,,,panas_questionnaire,survey-likert,3,96165,0.0-3.0,5b9e0051e671c600012277a9,180,mooneymood,5.349116666666666,,"{""Q0"":2,""Q1"":1,""Q2"":3,""Q3"":3,""Q4"":2,""Q5"":1,""Q6"":1,""Q7"":2,""Q8"":1,""Q9"":1,""Q10"":3,""Q11"":2,""Q12"":1,""Q13"":1,""Q14"":3,""Q15"":2,""Q16"":1,""Q17"":2,""Q18"":2,""Q19"":2}","Active,Ashamed,Excited,Strong,Alert,Distressed,Irritable,Interested,Guilty,Afraid,Inspired,Determined,Scared,Nervous,Proud,Upset,Hostile,Enthusiastic,Jittery,Attentive","jittery, determined, nervous, proud, guilty, ",2,3,0,0,0,"['jittery', 'determined', 'nervous', 'proud', 'guilty']",5,12,22
54,,,panas_questionnaire,survey-likert,3,107977,0.0-3.0,5a9b0be8b5e2110001c6ca67,0,mooneymood,6.35745,,"{""Q0"":0,""Q1"":2,""Q2"":1,""Q3"":1,""Q4"":0,""Q5"":1,""Q6"":3,""Q7"":3,""Q8"":2,""Q9"":2,""Q10"":0,""Q11"":0,""Q12"":3,""Q13"":1,""Q14"":3,""Q15"":0,""Q16"":3,""Q17"":3,""Q18"":2,""Q19"":0}","Upset,Inspired,Jittery,Nervous,Distressed,Guilty,Determined,Proud,Attentive,Excited,Afraid,Ashamed,Interested,Irritable,Enthusiastic,Hostile,Alert,Strong,Active,Scared","upset,hostile, proud, frightened, achievement, ",2,3,1,1,2,"['upset', 'hostile', 'proud', 'frightened', 'achievement']",5,4,23
55,,,panas_questionnaire,survey-likert,3,61647,0.0-3.0,5bc76b454e662b000132d1dc,0,mooneymood,7.0448,,"{""Q0"":0,""Q1"":1,""Q2"":2,""Q3"":2,""Q4"":0,""Q5"":2,""Q6"":3,""Q7"":2,""Q8"":2,""Q9"":0,""Q10"":3,""Q11"":1,""Q12"":3,""Q13"":2,""Q14"":0,""Q15"":3,""Q16"":2,""Q17"":1,""Q18"":2,""Q19"":0}","Guilty,Upset,Afraid,Scared,Ashamed,Active,Nervous,Inspired,Strong,Jittery,Determined,Attentive,Excited,Enthusiastic,Hostile,Interested,Proud,Distressed,Alert,Irritable","Angry, Happy, Distracted, Excited, Enthusiastic, Guilty, Proud, Distressed, Calm, Energetic, Joyful, Sad, Relaxed,",9,6,6,4,10,"['angry', 'happy', 'distracted', 'excited', 'enthusiastic', 'guilty', 'proud', 'distressed', 'calm', 'energetic', 'joyful', 'sad', 'relaxed']",13,9,20
56,,,panas_questionnaire,survey-likert,3,139007,0.0-3.0,5abd0b935cd105000161ea7b,180,mooneymood,8.72765,,"{""Q0"":4,""Q1"":3,""Q2"":4,""Q3"":3,""Q4"":3,""Q5"":3,""Q6"":0,""Q7"":2,""Q8"":0,""Q9"":4,""Q10"":2,""Q11"":3,""Q12"":3,""Q13"":0,""Q14"":2,""Q15"":0,""Q16"":3,""Q17"":0,""Q18"":2,""Q19"":3}","Attentive,Inspired,Determined,Enthusiastic,Alert,Nervous,Hostile,Distressed,Ashamed,Interested,Irritable,Jittery,Excited,Guilty,Proud,Scared,Strong,Afraid,Upset,Active","distressed,annoyed,irritable,strong,concentrated,worried,anxious,uneasy,determined",3,6,1,4,5,"['distressed', 'annoyed', 'irritable', 'strong', 'concentrated', 'worried', 'anxious', 'uneasy', 'determined']",9,12,29
57,,,panas_questionnaire,survey-likert,3,213619,0.0-3.0,545cdc18fdf99b75c29048ab,180,mooneymood,8.74295,,"{""Q0"":2,""Q1"":3,""Q2"":3,""Q3"":2,""Q4"":2,""Q5"":4,""Q6"":3,""Q7"":2,""Q8"":2,""Q9"":2,""Q10"":1,""Q11"":1,""Q12"":3,""Q13"":0,""Q14"":2,""Q15"":2,""Q16"":0,""Q17"":1,""Q18"":1,""Q19"":2}","Active,Determined,Distressed,Inspired,Afraid,Irritable,Proud,Interested,Nervous,Jittery,Hostile,Scared,Upset,Guilty,Enthusiastic,Attentive,Ashamed,Excited,Alert,Strong","scared, nervous, excited, active, upset, guilty, proud, aggressive, jittery",3,6,0,1,1,"['scared', 'nervous', 'excited', 'active', 'upset', 'guilty', 'proud', 'aggressive', 'jittery']",9,18,18
58,,,panas_questionnaire,survey-likert,3,63852,0.0-3.0,58c40874b101a7000129380d,0,mooneymood,4.907166666666667,,"{""Q0"":0,""Q1"":0,""Q2"":3,""Q3"":0,""Q4"":3,""Q5"":1,""Q6"":3,""Q7"":3,""Q8"":0,""Q9"":3,""Q10"":1,""Q11"":3,""Q12"":0,""Q13"":3,""Q14"":1,""Q15"":2,""Q16"":0,""Q17"":3,""Q18"":0,""Q19"":3}","Nervous,Distressed,Inspired,Scared,Active,Upset,Proud,Determined,Guilty,Enthusiastic,Jittery,Strong,Hostile,Excited,Irritable,Attentive,Ashamed,Interested,Afraid,Alert","Excited
Irritable
Inspired
Active
Attentive
Nervous
Jittery",4,3,0,0,0,"['excited', 'irritable', 'inspired', 'active', 'attentive', 'nervous', 'jittery']",7,3,26
59,,,panas_questionnaire,survey-likert,3,110154,0.0-3.0,58d02091681e3d0001214faf,0,mooneymood,6.412616666666667,,"{""Q0"":1,""Q1"":0,""Q2"":2,""Q3"":1,""Q4"":0,""Q5"":2,""Q6"":0,""Q7"":0,""Q8"":0,""Q9"":0,""Q10"":2,""Q11"":0,""Q12"":0,""Q13"":1,""Q14"":0,""Q15"":1,""Q16"":1,""Q17"":1,""Q18"":0,""Q19"":0}","Enthusiastic,Inspired,Alert,Excited,Proud,Irritable,Upset,Guilty,Afraid,Ashamed,Active,Jittery,Distressed,Strong,Scared,Interested,Determined,Attentive,Nervous,Hostile","proud, nervous, excited, scared, afraid, active, alert, happy, relaxed, ",7,3,3,0,3,"['proud', 'nervous', 'excited', 'scared', 'afraid', 'active', 'alert', 'happy', 'relaxed']",9,2,9
60,,,panas_questionnaire,survey-likert,3,271933,0.0-3.0,5bbe199f0e72ea0001754ff7,180,mooneymood,12.308616666666667,,"{""Q0"":1,""Q1"":2,""Q2"":3,""Q3"":2,""Q4"":0,""Q5"":2,""Q6"":3,""Q7"":3,""Q8"":2,""Q9"":2,""Q10"":1,""Q11"":3,""Q12"":1,""Q13"":1,""Q14"":2,""Q15"":2,""Q16"":3,""Q17"":2,""Q18"":1,""Q19"":3}","Excited,Active,Upset,Guilty,Ashamed,Attentive,Determined,Interested,Afraid,Alert,Enthusiastic,Distressed,Inspired,Strong,Jittery,Irritable,Nervous,Scared,Proud,Hostile","Jittery, Excited, Guilty, Attentive, Hostile, Motivated, Affraid, Nervous, ",3,5,1,0,1,"['jittery', 'excited', 'guilty', 'attentive', 'hostile', 'motivated', 'affraid', 'nervous']",8,22,16
61,,,panas_questionnaire,survey-likert,3,97599,0.0-3.0,56e6a66af6ed900006a5867c,0,mooneymood,9.881866666666667,,"{""Q0"":1,""Q1"":0,""Q2"":0,""Q3"":1,""Q4"":1,""Q5"":3,""Q6"":1,""Q7"":2,""Q8"":3,""Q9"":0,""Q10"":2,""Q11"":3,""Q12"":1,""Q13"":3,""Q14"":1,""Q15"":3,""Q16"":4,""Q17"":0,""Q18"":3,""Q19"":0}","Active,Jittery,Ashamed,Hostile,Enthusiastic,Determined,Excited,Irritable,Interested,Afraid,Upset,Alert,Inspired,Distressed,Nervous,Strong,Attentive,Scared,Proud,Guilty","Upset, Jittery, Afraid, Nervous, Attentive, Excited, Interested, Strong, Proud, Irritable, Alert, Ashamed, Fearful, Guilty, Determined",7,8,0,1,1,"['upset', 'jittery', 'afraid', 'nervous', 'attentive', 'excited', 'interested', 'strong', 'proud', 'irritable', 'alert', 'ashamed', 'fearful', 'guilty', 'determined']",15,9,22
62,,,panas_questionnaire,survey-likert,3,90730,0.0-3.0,5a77b956aa46dd00016b241e,0,mooneymood,5.9407,,"{""Q0"":2,""Q1"":0,""Q2"":3,""Q3"":1,""Q4"":1,""Q5"":0,""Q6"":2,""Q7"":0,""Q8"":0,""Q9"":2,""Q10"":1,""Q11"":0,""Q12"":2,""Q13"":2,""Q14"":1,""Q15"":1,""Q16"":0,""Q17"":1,""Q18"":0,""Q19"":0}","Active,Ashamed,Enthusiastic,Distressed,Excited,Jittery,Determined,Guilty,Alert,Proud,Inspired,Scared,Attentive,Strong,Upset,Interested,Afraid,Irritable,Nervous,Hostile","Inspired, Angry, Proud, Irritable, Nervous, Upset, Jittery",2,5,0,1,1,"['inspired', 'angry', 'proud', 'irritable', 'nervous', 'upset', 'jittery']",7,3,13
63,,,panas_questionnaire,survey-likert,3,487653,0.0-3.0,56cc78e3ccc0e20006b82a7d,180,mooneymood,11.485933333333334,,"{""Q0"":0,""Q1"":2,""Q2"":3,""Q3"":0,""Q4"":2,""Q5"":1,""Q6"":0,""Q7"":3,""Q8"":4,""Q9"":0,""Q10"":0,""Q11"":0,""Q12"":3,""Q13"":0,""Q14"":0,""Q15"":4,""Q16"":4,""Q17"":3,""Q18"":3,""Q19"":0}","Guilty,Inspired,Alert,Irritable,Excited,Nervous,Ashamed,Active,Determined,Afraid,Scared,Jittery,Proud,Distressed,Upset,Attentive,Strong,Enthusiastic,Interested,Hostile","Guilty, Ashamed, Determined, Active, Attentive, Nervous, Afraid, Proud",4,4,0,0,0,"['guilty', 'ashamed', 'determined', 'active', 'attentive', 'nervous', 'afraid', 'proud']",8,1,28
64,,,panas_questionnaire,survey-likert,3,93580,0.0-3.0,5b1279e2bd9c31000156c47d,0,mooneymood,5.407616666666667,,"{""Q0"":1,""Q1"":1,""Q2"":3,""Q3"":2,""Q4"":3,""Q5"":2,""Q6"":3,""Q7"":3,""Q8"":0,""Q9"":2,""Q10"":3,""Q11"":3,""Q12"":1,""Q13"":0,""Q14"":2,""Q15"":3,""Q16"":0,""Q17"":0,""Q18"":0,""Q19"":0}","Alert,Upset,Excited,Strong,Distressed,Attentive,Enthusiastic,Active,Jittery,Irritable,Hostile,Proud,Determined,Ashamed,Interested,Nervous,Inspired,Scared,Afraid,Guilty","Angry, scared, afraid, proud, afraid, jittery, happy, accomplished, anxious",4,6,3,2,5,"['angry', 'scared', 'afraid', 'proud', 'afraid', 'jittery', 'happy', 'accomplished', 'anxious']",9,12,17
65,,,panas_questionnaire,survey-likert,3,73822,0.0-3.0,56bdd0efef423f0006cbd833,0,mooneymood,8.86175,,"{""Q0"":0,""Q1"":0,""Q2"":1,""Q3"":0,""Q4"":0,""Q5"":0,""Q6"":2,""Q7"":1,""Q8"":2,""Q9"":1,""Q10"":1,""Q11"":1,""Q12"":0,""Q13"":1,""Q14"":2,""Q15"":1,""Q16"":1,""Q17"":2,""Q18"":1,""Q19"":1}","Scared,Ashamed,Inspired,Guilty,Afraid,Proud,Interested,Attentive,Nervous,Active,Excited,Alert,Upset,Hostile,Jittery,Determined,Strong,Irritable,Enthusiastic,Distressed","alert, jittery, upset, inspired, determined, interested, agitated, ",4,3,0,1,1,"['alert', 'jittery', 'upset', 'inspired', 'determined', 'interested', 'agitated']",7,8,9
66,,,panas_questionnaire,survey-likert,3,77777,0.0-3.0,5b304caf1d2f710001fb6244,180,mooneymood,7.133416666666666,,"{""Q0"":1,""Q1"":3,""Q2"":3,""Q3"":2,""Q4"":1,""Q5"":1,""Q6"":2,""Q7"":1,""Q8"":0,""Q9"":0,""Q10"":0,""Q11"":1,""Q12"":1,""Q13"":0,""Q14"":0,""Q15"":0,""Q16"":1,""Q17"":0,""Q18"":0,""Q19"":1}","Attentive,Distressed,Upset,Active,Inspired,Scared,Irritable,Afraid,Excited,Hostile,Enthusiastic,Determined,Alert,Jittery,Nervous,Strong,Ashamed,Proud,Interested,Guilty","Inspired, upset, excited, jittery, scared, hostile, strong, proud, ashamed, guilty, interested, enthusiastic, irritable, bored, active, attentive, alert, relaxed",10,8,1,1,2,"['inspired', 'upset', 'excited', 'jittery', 'scared', 'hostile', 'strong', 'proud', 'ashamed', 'guilty', 'interested', 'enthusiastic', 'irritable', 'bored', 'active', 'attentive', 'alert', 'relaxed']",18,12,6
67,,,panas_questionnaire,survey-likert,3,104811,0.0-3.0,59d6983fece378000107f1a1,0,mooneymood,7.163833333333334,,"{""Q0"":0,""Q1"":3,""Q2"":2,""Q3"":1,""Q4"":0,""Q5"":0,""Q6"":4,""Q7"":1,""Q8"":1,""Q9"":0,""Q10"":3,""Q11"":0,""Q12"":0,""Q13"":0,""Q14"":0,""Q15"":0,""Q16"":1,""Q17"":2,""Q18"":2,""Q19"":1}","Jittery,Ashamed,Active,Distressed,Guilty,Determined,Proud,Nervous,Strong,Upset,Excited,Hostile,Attentive,Scared,Enthusiastic,Afraid,Irritable,Interested,Alert,Inspired","guilty,ashamed,jittery,depressed,excited, inspired, active, ",3,4,0,1,1,"['guilty', 'ashamed', 'jittery', 'depressed', 'excited', 'inspired', 'active']",7,6,15
68,,,panas_questionnaire,survey-likert,3,58031,0.0-3.0,5a8e54c9f49c9a0001f3dc3f,180,mooneymood,4.546516666666666,,"{""Q0"":0,""Q1"":2,""Q2"":2,""Q3"":3,""Q4"":0,""Q5"":0,""Q6"":0,""Q7"":0,""Q8"":0,""Q9"":0,""Q10"":0,""Q11"":0,""Q12"":2,""Q13"":3,""Q14"":0,""Q15"":0,""Q16"":2,""Q17"":1,""Q18"":1,""Q19"":1}","Hostile,Active,Excited,Determined,Irritable,Upset,Proud,Scared,Nervous,Distressed,Guilty,Ashamed,Attentive,Interested,Afraid,Jittery,Alert,Inspired,Strong,Enthusiastic","hostile, irritated, proud, excited, alert, distressed, nervous, interested, active",5,4,0,1,1,"['hostile', 'irritated', 'proud', 'excited', 'alert', 'distressed', 'nervous', 'interested', 'active']",9,0,16
69,,,panas_questionnaire,survey-likert,3,89276,0.0-3.0,5bb1fd6ea980250001d25089,0,mooneymood,6.658,,"{""Q0"":4,""Q1"":3,""Q2"":3,""Q3"":3,""Q4"":4,""Q5"":4,""Q6"":3,""Q7"":3,""Q8"":2,""Q9"":2,""Q10"":2,""Q11"":2,""Q12"":4,""Q13"":3,""Q14"":3,""Q15"":3,""Q16"":3,""Q17"":2,""Q18"":3,""Q19"":2}","Excited,Guilty,Ashamed,Upset,Determined,Interested,Hostile,Active,Jittery,Scared,Alert,Distressed,Proud,Nervous,Enthusiastic,Inspired,Afraid,Attentive,Irritable,Strong","irrational, jittery, proud, depressed, strong, impressed, ",3,3,1,2,3,"['irrational', 'jittery', 'proud', 'depressed', 'strong', 'impressed']",6,27,28
70,,,panas_questionnaire,survey-likert,3,226775,0.0-3.0,5b2e9c09975e260001e92525,0,mooneymood,12.398766666666667,,"{""Q0"":3,""Q1"":2,""Q2"":1,""Q3"":2,""Q4"":2,""Q5"":0,""Q6"":0,""Q7"":0,""Q8"":3,""Q9"":3,""Q10"":1,""Q11"":2,""Q12"":0,""Q13"":1,""Q14"":2,""Q15"":0,""Q16"":0,""Q17"":0,""Q18"":2,""Q19"":2}","Enthusiastic,Attentive,Irritable,Interested,Alert,Ashamed,Afraid,Nervous,Determined,Active,Guilty,Strong,Upset,Distressed,Proud,Hostile,Jittery,Scared,Inspired,Excited","enthusiastic,attentive,irritable,interested,distressed,afraid,guilty,excited,proud,nervous,active,attentive,",7,5,0,0,0,"['enthusiastic', 'attentive', 'irritable', 'interested', 'distressed', 'afraid', 'guilty', 'excited', 'proud', 'nervous', 'active', 'attentive']",12,3,20
71,,,panas_questionnaire,survey-likert,3,57908,0.0-3.0,5b4bf28864ce80000195fe68,0,mooneymood,4.52625,,"{""Q0"":3,""Q1"":3,""Q2"":2,""Q3"":4,""Q4"":0,""Q5"":0,""Q6"":2,""Q7"":0,""Q8"":1,""Q9"":0,""Q10"":2,""Q11"":3,""Q12"":0,""Q13"":3,""Q14"":1,""Q15"":3,""Q16"":3,""Q17"":1,""Q18"":3,""Q19"":0}","Strong,Proud,Attentive,Alert,Scared,Distressed,Active,Ashamed,Jittery,Afraid,Guilty,Enthusiastic,Nervous,Excited,Upset,Interested,Inspired,Hostile,Determined,Irritable","Irritable, anxious, hostile, scared, upset, angry, excited, worried, determined, energetic",3,7,1,3,4,"['irritable', 'anxious', 'hostile', 'scared', 'upset', 'angry', 'excited', 'worried', 'determined', 'energetic']",10,5,26
72,,,panas_questionnaire,survey-likert,3,88864,0.0-3.0,5afdda0456fe2c0001690b1e,0,mooneymood,6.3284666666666665,,"{""Q0"":0,""Q1"":2,""Q2"":1,""Q3"":0,""Q4"":0,""Q5"":2,""Q6"":0,""Q7"":1,""Q8"":0,""Q9"":0,""Q10"":2,""Q11"":2,""Q12"":0,""Q13"":1,""Q14"":3,""Q15"":2,""Q16"":2,""Q17"":2,""Q18"":2,""Q19"":2}","Active,Distressed,Enthusiastic,Hostile,Ashamed,Interested,Afraid,Inspired,Guilty,Jittery,Nervous,Attentive,Scared,Strong,Irritable,Excited,Alert,Proud,Determined,Upset","irritated, angry, excited, jittery, motivated, active, upset, ",3,4,1,2,3,"['irritated', 'angry', 'excited', 'jittery', 'motivated', 'active', 'upset']",7,9,14
73,,,panas_questionnaire,survey-likert,3,109202,0.0-3.0,58a474be34fcb30001053c74,0,mooneymood,6.3885,,"{""Q0"":1,""Q1"":1,""Q2"":1,""Q3"":0,""Q4"":2,""Q5"":1,""Q6"":0,""Q7"":0,""Q8"":3,""Q9"":2,""Q10"":2,""Q11"":1,""Q12"":2,""Q13"":2,""Q14"":2,""Q15"":2,""Q16"":3,""Q17"":3,""Q18"":3,""Q19"":2}","Guilty,Hostile,Afraid,Ashamed,Nervous,Irritable,Scared,Distressed,Excited,Interested,Attentive,Upset,Inspired,Enthusiastic,Alert,Determined,Active,Jittery,Strong,Proud","guilty, nervous, strong, ashamed, proud, scared, shy, attentive, active",4,5,0,1,1,"['guilty', 'nervous', 'strong', 'ashamed', 'proud', 'scared', 'shy', 'attentive', 'active']",9,10,21
74,,,panas_questionnaire,survey-likert,3,177110,0.0-3.0,5b1966a168a5ed0001735813,0,mooneymood,7.042033333333333,,"{""Q0"":0,""Q1"":1,""Q2"":0,""Q3"":1,""Q4"":0,""Q5"":1,""Q6"":2,""Q7"":1,""Q8"":2,""Q9"":1,""Q10"":2,""Q11"":2,""Q12"":0,""Q13"":2,""Q14"":1,""Q15"":2,""Q16"":2,""Q17"":1,""Q18"":1,""Q19"":1}","Inspired,Excited,Afraid,Determined,Hostile,Proud,Jittery,Irritable,Alert,Distressed,Active,Interested,Guilty,Strong,Scared,Upset,Nervous,Attentive,Enthusiastic,Ashamed","sad,",0,2,0,2,2,['sad'],1,10,12
75,,,panas_questionnaire,survey-likert,3,119205,0.0-3.0,5b9fa25e7b196f000195fd78,0,mooneymood,5.875783333333334,,"{""Q0"":1,""Q1"":1,""Q2"":0,""Q3"":0,""Q4"":1,""Q5"":0,""Q6"":0,""Q7"":0,""Q8"":1,""Q9"":1,""Q10"":0,""Q11"":1,""Q12"":0,""Q13"":1,""Q14"":0,""Q15"":2,""Q16"":1,""Q17"":0,""Q18"":0,""Q19"":0}","Attentive,Hostile,Jittery,Inspired,Excited,Upset,Proud,Enthusiastic,Nervous,Alert,Scared,Strong,Afraid,Interested,Distressed,Irritable,Active,Guilty,Ashamed,Determined","Irritable, Anxious, Determined, Scared, ",1,3,0,1,1,"['irritable', 'anxious', 'determined', 'scared']",4,4,6
76,,,panas_questionnaire,survey-likert,3,179671,0.0-3.0,5b422566e8815c0001777ae6,0,mooneymood,13.39195,,"{""Q0"":0,""Q1"":4,""Q2"":0,""Q3"":3,""Q4"":2,""Q5"":4,""Q6"":1,""Q7"":0,""Q8"":4,""Q9"":4,""Q10"":2,""Q11"":3,""Q12"":4,""Q13"":0,""Q14"":1,""Q15"":0,""Q16"":3,""Q17"":1,""Q18"":1,""Q19"":4}","Scared,Attentive,Afraid,Excited,Inspired,Proud,Guilty,Hostile,Strong,Interested,Distressed,Enthusiastic,Alert,Jittery,Upset,Ashamed,Active,Nervous,Irritable,Determined","enthusiastic, energetic, guilty, proud, scared, alert, happy, excited",7,2,3,0,3,"['enthusiastic', 'energetic', 'guilty', 'proud', 'scared', 'alert', 'happy', 'excited']",8,6,32
77,,,panas_questionnaire,survey-likert,3,113952,0.0-3.0,58b20a24c352cc0001ed554b,180,mooneymood,7.952533333333333,,"{""Q0"":3,""Q1"":2,""Q2"":3,""Q3"":0,""Q4"":1,""Q5"":0,""Q6"":0,""Q7"":0,""Q8"":0,""Q9"":2,""Q10"":2,""Q11"":3,""Q12"":4,""Q13"":2,""Q14"":1,""Q15"":3,""Q16"":1,""Q17"":4,""Q18"":4,""Q19"":4}","Excited,Upset,Inspired,Jittery,Guilty,Hostile,Afraid,Ashamed,Nervous,Distressed,Enthusiastic,Alert,Determined,Irritable,Scared,Attentive,Interested,Proud,Strong,Active","Interested, distressed, nervous, scared, excited, fear, determined, strong, active, alert, attentive, ",7,4,0,1,1,"['interested', 'distressed', 'nervous', 'scared', 'excited', 'fear', 'determined', 'strong', 'active', 'alert', 'attentive']",11,8,29
78,,,panas_questionnaire,survey-likert,3,120311,0.0-3.0,58d069219dbe3f0001258793,180,mooneymood,6.497716666666666,,"{""Q0"":1,""Q1"":0,""Q2"":0,""Q3"":3,""Q4"":1,""Q5"":3,""Q6"":0,""Q7"":2,""Q8"":3,""Q9"":1,""Q10"":4,""Q11"":4,""Q12"":0,""Q13"":2,""Q14"":0,""Q15"":1,""Q16"":0,""Q17"":4,""Q18"":2,""Q19"":0}","Distressed,Nervous,Afraid,Enthusiastic,Upset,Determined,Scared,Inspired,Strong,Active,Attentive,Alert,Hostile,Proud,Jittery,Irritable,Guilty,Interested,Excited,Ashamed","Attentive, angry, excited, jittery, ashamed, alert, hostile, proud",4,4,0,1,1,"['attentive', 'angry', 'excited', 'jittery', 'ashamed', 'alert', 'hostile', 'proud']",8,3,25
79,,,panas_questionnaire,survey-likert,3,64669,0.0-3.0,5afde57096a88e0001ff4168,0,mooneymood,5.476366666666666,,"{""Q0"":2,""Q1"":0,""Q2"":0,""Q3"":2,""Q4"":1,""Q5"":1,""Q6"":3,""Q7"":3,""Q8"":0,""Q9"":0,""Q10"":0,""Q11"":1,""Q12"":3,""Q13"":3,""Q14"":3,""Q15"":0,""Q16"":2,""Q17"":1,""Q18"":3,""Q19"":0}","Proud,Hostile,Irritable,Strong,Inspired,Nervous,Enthusiastic,Alert,Guilty,Ashamed,Distressed,Jittery,Attentive,Excited,Active,Scared,Determined,Afraid,Interested,Upset","active, inspired, excited, scared, angry, nervous,   worried, ",3,4,0,2,2,"['active', 'inspired', 'excited', 'scared', 'angry', 'nervous', 'worried']",7,3,22
80,,,panas_questionnaire,survey-likert,3,69759,0.0-3.0,591a1f4800a5650001276188,180,mooneymood,5.4231,,"{""Q0"":3,""Q1"":0,""Q2"":0,""Q3"":0,""Q4"":3,""Q5"":2,""Q6"":1,""Q7"":2,""Q8"":0,""Q9"":1,""Q10"":0,""Q11"":0,""Q12"":2,""Q13"":0,""Q14"":2,""Q15"":1,""Q16"":0,""Q17"":1,""Q18"":0,""Q19"":2}","Determined,Hostile,Alert,Guilty,Interested,Excited,Jittery,Enthusiastic,Scared,Inspired,Distressed,Upset,Strong,Ashamed,Attentive,Nervous,Afraid,Proud,Irritable,Active","Attentiv, nervous, jittery, guilty, proud, strong, enthusiastic, ashamed.",4,4,0,0,0,"['attentiv', 'nervous', 'jittery', 'guilty', 'proud', 'strong', 'enthusiastic', 'ashamed']",8,2,16
81,,,panas_questionnaire,survey-likert,3,64469,0.0-3.0,5bb609520cb04c00014efb8a,180,mooneymood,4.3551,,"{""Q0"":3,""Q1"":0,""Q2"":2,""Q3"":1,""Q4"":0,""Q5"":0,""Q6"":3,""Q7"":0,""Q8"":1,""Q9"":0,""Q10"":1,""Q11"":0,""Q12"":0,""Q13"":0,""Q14"":3,""Q15"":0,""Q16"":4,""Q17"":3,""Q18"":0,""Q19"":4}","Inspired,Hostile,Alert,Active,Irritable,Guilty,Proud,Upset,Enthusiastic,Afraid,Strong,Distressed,Scared,Nervous,Interested,Jittery,Determined,Attentive,Ashamed,Excited","Inspired, Nervous, Jittery, Strong, Determined, Active, Attentive, Alert, Afraid",6,3,0,0,0,"['inspired', 'nervous', 'jittery', 'strong', 'determined', 'active', 'attentive', 'alert', 'afraid']",9,0,24
82,,,panas_questionnaire,survey-likert,3,116865,0.0-3.0,59c63ec50aaf750001213c37,180,mooneymood,8.251216666666666,,"{""Q0"":3,""Q1"":0,""Q2"":0,""Q3"":0,""Q4"":1,""Q5"":0,""Q6"":0,""Q7"":2,""Q8"":0,""Q9"":0,""Q10"":0,""Q11"":0,""Q12"":0,""Q13"":1,""Q14"":1,""Q15"":0,""Q16"":1,""Q17"":1,""Q18"":1,""Q19"":0}","Active,Hostile,Distressed,Proud,Jittery,Upset,Excited,Nervous,Strong,Attentive,Determined,Ashamed,Inspired,Guilty,Irritable,Enthusiastic,Scared,Interested,Afraid,Alert","scared,angry,afraid,proud,nervous,interested,guilty",2,5,0,1,1,"['scared', 'angry', 'afraid', 'proud', 'nervous', 'interested', 'guilty']",7,7,4
83,,,panas_questionnaire,survey-likert,3,34057,0.0-3.0,5b7afe717737e50001635503,180,mooneymood,3.8829166666666666,,"{""Q0"":0,""Q1"":1,""Q2"":3,""Q3"":3,""Q4"":1,""Q5"":2,""Q6"":0,""Q7"":3,""Q8"":0,""Q9"":2,""Q10"":1,""Q11"":2,""Q12"":0,""Q13"":2,""Q14"":2,""Q15"":1,""Q16"":3,""Q17"":0,""Q18"":3,""Q19"":0}","Guilty,Ashamed,Attentive,Enthusiastic,Distressed,Excited,Afraid,Determined,Irritable,Inspired,Nervous,Interested,Upset,Strong,Proud,Jittery,Alert,Scared,Active,Hostile","hostile, interested, anxious, alert, jittery, tired",2,4,0,2,2,"['hostile', 'interested', 'anxious', 'alert', 'jittery', 'tired']",6,4,22
84,,,panas_questionnaire,survey-likert,3,112995,0.0-3.0,5a5391ac8e62590001758a67,0,mooneymood,8.015233333333333,,"{""Q0"":0,""Q1"":2,""Q2"":2,""Q3"":0,""Q4"":1,""Q5"":1,""Q6"":2,""Q7"":3,""Q8"":2,""Q9"":0,""Q10"":0,""Q11"":2,""Q12"":2,""Q13"":2,""Q14"":0,""Q15"":0,""Q16"":0,""Q17"":1,""Q18"":0,""Q19"":0}","Jittery,Strong,Determined,Irritable,Excited,Distressed,Inspired,Attentive,Alert,Scared,Ashamed,Proud,Active,Interested,Afraid,Upset,Hostile,Enthusiastic,Guilty,Nervous","excited, proud, alert, fear, happy, distressed, guilt, ",5,3,2,1,3,"['excited', 'proud', 'alert', 'fear', 'happy', 'distressed', 'guilt']",7,1,18
85,,,panas_questionnaire,survey-likert,3,97256,0.0-3.0,5b3e78a6ce495400013772e0,0,mooneymood,6.64155,,"{""Q0"":1,""Q1"":1,""Q2"":2,""Q3"":1,""Q4"":2,""Q5"":2,""Q6"":3,""Q7"":1,""Q8"":3,""Q9"":1,""Q10"":2,""Q11"":1,""Q12"":2,""Q13"":2,""Q14"":1,""Q15"":0,""Q16"":0,""Q17"":2,""Q18"":1,""Q19"":2}","Nervous,Alert,Interested,Upset,Guilty,Distressed,Proud,Inspired,Irritable,Jittery,Active,Afraid,Strong,Attentive,Enthusiastic,Ashamed,Hostile,Determined,Scared,Excited","attentive , stressed , inspired, irritable, ",2,2,0,1,1,"['attentive', 'stressed', 'inspired', 'irritable']",4,12,17
86,,,panas_questionnaire,survey-likert,3,139953,0.0-3.0,5bc785bc35b90f0001432a61,0,mooneymood,7.751116666666666,,"{""Q0"":0,""Q1"":3,""Q2"":3,""Q3"":0,""Q4"":2,""Q5"":1,""Q6"":3,""Q7"":1,""Q8"":2,""Q9"":1,""Q10"":1,""Q11"":2,""Q12"":2,""Q13"":3,""Q14"":2,""Q15"":0,""Q16"":2,""Q17"":2,""Q18"":3,""Q19"":1}","Scared,Determined,Interested,Afraid,Proud,Guilty,Excited,Jittery,Active,Nervous,Hostile,Alert,Inspired,Strong,Distressed,Ashamed,Irritable,Enthusiastic,Attentive,Upset",attentive. inspired. scared. excited. guilty. distressed. hostile. jittery. surprised. upset.,3,6,0,0,0,"['attentive', 'inspired', 'scared', 'excited', 'guilty', 'distressed', 'hostile', 'jittery', 'surprised', 'upset']",10,9,23
87,,,panas_questionnaire,survey-likert,3,178879,0.0-3.0,591e2e99529e9f0001ec705a,180,mooneymood,13.561133333333334,,"{""Q0"":1,""Q1"":0,""Q2"":1,""Q3"":0,""Q4"":2,""Q5"":0,""Q6"":0,""Q7"":2,""Q8"":1,""Q9"":0,""Q10"":0,""Q11"":3,""Q12"":0,""Q13"":1,""Q14"":0,""Q15"":3,""Q16"":0,""Q17"":2,""Q18"":0,""Q19"":1}","Jittery,Excited,Afraid,Distressed,Active,Determined,Hostile,Interested,Strong,Proud,Guilty,Attentive,Scared,Upset,Enthusiastic,Alert,Ashamed,Irritable,Inspired,Nervous","irritable,  inspired, hostile, fear, anxious, contented, scared, attentive, determined, worried, ",4,6,1,3,4,"['irritable', 'inspired', 'hostile', 'fear', 'anxious', 'contented', 'scared', 'attentive', 'determined', 'worried']",10,6,11
88,,,panas_questionnaire,survey-likert,3,90584,0.0-3.0,5880f713ab00f60001923541,180,mooneymood,6.134766666666667,,"{""Q0"":0,""Q1"":1,""Q2"":3,""Q3"":2,""Q4"":2,""Q5"":0,""Q6"":3,""Q7"":2,""Q8"":0,""Q9"":0,""Q10"":2,""Q11"":0,""Q12"":0,""Q13"":0,""Q14"":0,""Q15"":3,""Q16"":2,""Q17"":3,""Q18"":0,""Q19"":3}","Distressed,Irritable,Alert,Excited,Inspired,Jittery,Interested,Enthusiastic,Upset,Hostile,Strong,Afraid,Guilty,Ashamed,Nervous,Determined,Proud,Active,Scared,Attentive","hostile, afraid,excited,jittery,interested,alert,nervous,
attentive,determined,ashamed,guilty",5,6,0,0,0,"['hostile', 'afraid', 'excited', 'jittery', 'interested', 'alert', 'nervous', 'attentive', 'determined', 'ashamed', 'guilty']",11,1,23
